cue_text,visual_stim_orientation,correct_answer,trials.thisRepN,trials.thisTrialN,trials.thisN,trials.thisIndex,thisRow.t,notes,initialisation.started,initialisation.stopped,start_experiment.started,text.started,key_resp.started,start_experiment.stopped,key_resp.keys,key_resp.rt,key_resp.duration,trigger.started,trigger.stopped,cue.started,text_3.started,cue.stopped,cue_to_target.started,text_4.started,cue_to_target.stopped,checkerboard.started,stimulus_fixation.started,grating.started,checkerboard.stopped,response_period.started,response.started,text_2.started,response.stopped,text_2.stopped,response_period.stopped,response.keys,response.corr,response.rt,response.duration,text_3.stopped,text_4.stopped,stimulus_fixation.stopped,grating.stopped,end_experiment.started,end_text.started,end_button.started,end_experiment.stopped,end_button.keys,end_button.rt,end_button.duration,participant,run,trial_duration,standard_vibration_freq,target_vibration_diff,standard_checkerboard_freq,high_checkerboard_freq,date,expName,psychopyVersion,frameRate,expStart,
,,,,,,,,,0.03689670001040213,0.03736339999886695,,,,,,,,,,,,,,,,,,,,,,,,,,,,,,,,,,,,,,,,,01,01,0.1,20,10,10,20,2024-10-29_11h23.59.237,vibrotactile_experiment_test,2024.1.1,None,2024-10-29 11h24.11.162645 +0000,
,,,,,,,,,,,0.03739510000741575,0.06046550000610296,0.06046550000610296,8.23253000000841,space,8.210422900010599,None,,,,,,,,,,,,,,,,,,,,,,,,,,,,,,,,,,01,01,0.1,20,10,10,20,2024-10-29_11h23.59.237,vibrotactile_experiment_test,2024.1.1,None,2024-10-29 11h24.11.162645 +0000,
,,,,,,,,,,,,,,,,,,8.232582199998433,8.232787400003872,,,,,,,,,,,,,,,,,,,,,,,,,,,,,,,,01,01,0.1,20,10,10,20,2024-10-29_11h23.59.237,vibrotactile_experiment_test,2024.1.1,None,2024-10-29 11h24.11.162645 +0000,
Visual Only,-5,left,0,0,0,6,8.256036700011464,,,,,,,,,,,,,8.239394800009904,8.256036700011464,8.49556670000311,8.495580900009372,8.507388099998934,9.992283700004919,9.992298500001198,10.007179500011262,10.007179500011262,10.07975940000324,10.079779799998505,10.090608400001656,10.090608400001656,10.890858200000366,10.890858200000366,10.877165700003388,left,1,10.538115000003017,0.12142880000465084,,,,,,,,,,,,01,01,0.1,20,10,10,20,2024-10-29_11h23.59.237,vibrotactile_experiment_test,2024.1.1,None,2024-10-29 11h24.11.162645 +0000,
Visual Only,-1,left,0,1,1,8,10.890858200000366,,,,,,,,,,,,,10.877929499998572,10.890858200000366,11.12678250001045,11.126797100005206,11.14049600000726,12.628402100002859,12.62844590000168,12.643110100005288,12.643110100005288,12.714056299999356,12.714084999999614,12.724132300005294,12.724132300005294,13.5241468000022,13.5241468000022,13.510985000000801,left,1,13.426038200006587,None,11.14049600000726,,,,,,,,,,,01,01,0.1,20,10,10,20,2024-10-29_11h23.59.237,vibrotactile_experiment_test,2024.1.1,None,2024-10-29 11h24.11.162645 +0000,
Visual Only,15,right,0,2,2,3,13.5241468000022,,,,,,,,,,,,,13.511719800007995,13.5241468000022,13.761078499999712,13.761099199997261,13.776920600008452,15.276582000005874,15.276617100011208,15.291544500010787,15.291544500010787,15.359405499999411,15.35942530000466,15.37438480000128,15.37438480000128,,,16.14526289999776,right,1,15.754206600002362,0.12060270000074524,13.776920600008452,,,,,,,,,,,01,01,0.1,20,10,10,20,2024-10-29_11h23.59.237,vibrotactile_experiment_test,2024.1.1,None,2024-10-29 11h24.11.162645 +0000,
Visual Only,-10,left,0,3,3,4,16.157841500011273,,,,,,,,,,,,,16.14589590000105,16.157841500011273,16.39497819999815,16.39499980000255,16.407810000004247,17.893630899998243,17.89365949999774,17.907897500001127,17.907897500001127,17.994032600006904,17.994050499997684,18.00710970000364,18.00710970000364,,,18.797245300011127,left,1,18.38609840000572,0.15181640000082552,16.407810000004247,17.907897500001127,18.00710970000364,18.00710970000364,,,,,,,,01,01,0.1,20,10,10,20,2024-10-29_11h23.59.237,vibrotactile_experiment_test,2024.1.1,None,2024-10-29 11h24.11.162645 +0000,
Visual Only,10,right,0,4,4,5,18.807465200006845,,,,,,,,,,,,,18.79769320000196,18.807465200006845,19.04367500000808,19.04369210000732,19.05767690000357,20.542788000006112,20.54280270000163,20.557313900004374,20.557313900004374,20.64516430000367,20.645180000006803,20.659842400011257,20.659842400011257,,,21.442848999999114,right,1,21.07411950000096,0.13617420000082348,19.05767690000357,20.557313900004374,,,,,,,,,,01,01,0.1,20,10,10,20,2024-10-29_11h23.59.237,vibrotactile_experiment_test,2024.1.1,None,2024-10-29 11h24.11.162645 +0000,
Visual Only,1,right,0,5,5,9,21.457899700006237,,,,,,,,,,,,,21.443402100005187,21.457899700006237,21.693491600002744,21.693508500000462,21.70789460001106,23.193509900011122,23.19353140000021,23.207702600004268,23.207702600004268,23.295791199998348,23.295805600006133,23.307695800001966,23.307695800001966,24.107394999999087,24.107394999999087,24.09280430000217,None,0,,,21.70789460001106,,,,,,,,,,,01,01,0.1,20,10,10,20,2024-10-29_11h23.59.237,vibrotactile_experiment_test,2024.1.1,None,2024-10-29 11h24.11.162645 +0000,
Visual Only,20,right,0,6,6,1,24.107394999999087,,,,,,,,,,,,,24.09328970000206,24.107394999999087,24.34637610000209,24.346391500002937,24.357879600007436,25.846053300003405,25.84608339999977,25.857728400005726,25.857728400005726,25.94585640000878,25.945871600008104,25.957492600005935,25.957492600005935,26.757693500010646,26.757693500010646,26.743259800001397,right,1,26.545786400005454,0.13683519999904092,,,,,,,,,,,,01,01,0.1,20,10,10,20,2024-10-29_11h23.59.237,vibrotactile_experiment_test,2024.1.1,None,2024-10-29 11h24.11.162645 +0000,
Visual Only,5,right,0,7,7,7,26.757693500010646,,,,,,,,,,,,,26.743810300002224,26.757693500010646,26.992602400001488,26.992619199998444,27.007170199998654,28.493124800006626,28.49314050000976,28.507386800003587,28.507386800003587,28.595339799998328,28.595379300008062,28.60882130000391,28.60882130000391,29.407911500005866,29.407911500005866,29.393619800001034,right,1,29.298156900011236,None,27.007170199998654,28.507386800003587,,,,,,,,,,01,01,0.1,20,10,10,20,2024-10-29_11h23.59.237,vibrotactile_experiment_test,2024.1.1,None,2024-10-29 11h24.11.162645 +0000,
Visual Only,-20,left,0,8,8,0,29.407911500005866,,,,,,,,,,,,,29.394154200010234,29.407911500005866,29.645347099998617,29.64539020000666,29.658396400001948,31.143398900007014,31.143417600003886,31.158296699999482,31.158296699999482,31.245421900006477,31.245436700002756,31.25769900000887,31.25769900000887,,,32.04567859999952,left,1,31.603499400007422,0.11090220000187401,,31.158296699999482,,,,,,,,,,01,01,0.1,20,10,10,20,2024-10-29_11h23.59.237,vibrotactile_experiment_test,2024.1.1,None,2024-10-29 11h24.11.162645 +0000,
Visual Only,-15,left,0,9,9,2,32.057664500011015,,,,,,,,,,,,,32.04615220001142,32.057664500011015,32.293034900008934,32.293049800005974,32.307654800009914,33.79673430000548,33.79675069999939,33.808247100008884,33.808247100008884,33.893233800001326,33.8932793999993,33.90801410000131,33.90801410000131,34.707573300009244,34.707573300009244,34.69346460000088,left,1,34.281804800004466,0.15265519999957178,32.307654800009914,,33.90801410000131,33.90801410000131,,,,,,,,01,01,0.1,20,10,10,20,2024-10-29_11h23.59.237,vibrotactile_experiment_test,2024.1.1,None,2024-10-29 11h24.11.162645 +0000,
Visual Only,15,right,1,0,10,3,34.707573300009244,,,,,,,,,,,,,34.693989000006695,34.707573300009244,34.943264100002125,34.94328170000517,34.95734470000025,36.44380269999965,36.44381989999965,36.45763689999876,36.45763689999876,36.543326400002115,36.543347099999664,36.55802470000344,36.55802470000344,,,37.3463189000031,right,1,36.93000900000334,0.16789949999656528,34.95734470000025,36.45763689999876,36.55802470000344,36.55802470000344,,,,,,,,01,01,0.1,20,10,10,20,2024-10-29_11h23.59.237,vibrotactile_experiment_test,2024.1.1,None,2024-10-29 11h24.11.162645 +0000,
Visual Only,1,right,1,1,11,9,37.35792070000025,,,,,,,,,,,,,37.3467784000095,37.35792070000025,37.59565770000336,37.59569339999871,37.61280460000853,39.09362169999804,39.09366340000997,39.10777370000142,39.10777370000142,39.19374490001064,39.19377379999787,39.20759530000214,39.20759530000214,40.00762280001072,40.00762280001072,39.99309699999867,right,1,39.93001490000461,None,,,39.20759530000214,39.20759530000214,,,,,,,,01,01,0.1,20,10,10,20,2024-10-29_11h23.59.237,vibrotactile_experiment_test,2024.1.1,None,2024-10-29 11h24.11.162645 +0000,
Visual Only,20,right,1,2,12,1,40.00762280001072,,,,,,,,,,,,,39.993614000006346,40.00762280001072,40.242748999997275,40.24276269999973,40.257986399999936,41.7433835999982,41.743402799998876,41.75802160000603,41.75802160000603,41.843641300001764,41.84366480000608,41.857681599998614,41.857681599998614,,,42.6483159000054,right,1,42.20246840000618,0.152902499990887,40.257986399999936,41.75802160000603,41.857681599998614,41.857681599998614,,,,,,,,01,01,0.1,20,10,10,20,2024-10-29_11h23.59.237,vibrotactile_experiment_test,2024.1.1,None,2024-10-29 11h24.11.162645 +0000,
Visual Only,-10,left,1,3,13,4,42.65813760001038,,,,,,,,,,,,,42.64879780000774,42.65813760001038,42.89306050000596,42.893081100002746,42.90794540000206,44.392898600010085,44.39291400001093,44.40762490000634,44.40762490000634,44.493476100004045,44.493493100002524,44.50770470000862,44.50770470000862,,,45.29421040001034,left,1,44.81815110000025,0.1763173000072129,42.90794540000206,44.40762490000634,44.50770470000862,44.50770470000862,,,,,,,,01,01,0.1,20,10,10,20,2024-10-29_11h23.59.237,vibrotactile_experiment_test,2024.1.1,None,2024-10-29 11h24.11.162645 +0000,
Visual Only,-5,left,1,4,14,6,45.307931500006816,,,,,,,,,,,,,45.295135699998355,45.307931500006816,45.54361239999707,45.543630300002405,45.55774780000502,47.04359970000223,47.04361680000147,47.05771920000552,47.05771920000552,47.144692400004715,47.14473450000514,47.158618500005105,47.158618500005105,,,47.94292149999819,left,1,47.50569710000127,0.1441054000024451,45.55774780000502,47.05771920000552,,,,,,,,,,01,01,0.1,20,10,10,20,2024-10-29_11h23.59.237,vibrotactile_experiment_test,2024.1.1,None,2024-10-29 11h24.11.162645 +0000,
Visual Only,-20,left,1,5,15,0,47.9580302000104,,,,,,,,,,,,,47.94345109999995,47.9580302000104,48.192525100006605,48.19254170000204,48.20775460000732,49.69347209999978,49.69348780000291,49.70905240000866,49.70905240000866,49.79439100000309,49.79440660000546,49.80831590000889,49.80831590000889,,,50.59588330000406,left,1,50.243477600000915,0.15109359999769367,48.20775460000732,,,,,,,,,,,01,01,0.1,20,10,10,20,2024-10-29_11h23.59.237,vibrotactile_experiment_test,2024.1.1,None,2024-10-29 11h24.11.162645 +0000,
Visual Only,5,right,1,6,16,7,50.60917110000446,,,,,,,,,,,,,50.59662050000043,50.60917110000446,50.84516260000237,50.84517690000939,50.85806610000145,52.34331860000384,52.34333940000215,52.35726010000508,52.35726010000508,52.4428198000096,52.44284410000546,52.45730860000185,52.45730860000185,53.2577944000077,53.2577944000077,53.24284120000084,right,1,52.786164000004646,0.12045259999285918,,52.35726010000508,52.45730860000185,52.45730860000185,,,,,,,,01,01,0.1,20,10,10,20,2024-10-29_11h23.59.237,vibrotactile_experiment_test,2024.1.1,None,2024-10-29 11h24.11.162645 +0000,
Visual Only,10,right,1,7,17,5,53.2577944000077,,,,,,,,,,,,,53.24337270000251,53.2577944000077,53.49351030000253,53.4935267999972,53.50771930000337,54.99317090000841,54.9931854000024,55.00804770000104,55.00804770000104,55.09341220000351,55.093429400003515,55.108020700005,55.108020700005,55.90771100000711,55.90771100000711,55.89340400000219,right,1,55.44252710000728,0.12803330000315327,53.50771930000337,55.00804770000104,55.108020700005,55.108020700005,,,,,,,,01,01,0.1,20,10,10,20,2024-10-29_11h23.59.237,vibrotactile_experiment_test,2024.1.1,None,2024-10-29 11h24.11.162645 +0000,
Visual Only,-1,left,1,8,18,8,55.90771100000711,,,,,,,,,,,,,55.89427689999866,55.90771100000711,56.142936400006874,56.1429524999985,56.15746790000412,57.64476190001005,57.64480470000126,57.65942460000224,57.65942460000224,57.74305750000349,57.7430783000018,57.76056850000168,57.76056850000168,,,58.543098800000735,None,0,,,56.15746790000412,,,,,,,,,,,01,01,0.1,20,10,10,20,2024-10-29_11h23.59.237,vibrotactile_experiment_test,2024.1.1,None,2024-10-29 11h24.11.162645 +0000,
Visual Only,-15,left,1,9,19,2,58.55809330000193,,,,,,,,,,,,,58.543559099998674,58.55809330000193,58.79345470000408,58.79347470001085,58.80797410001105,60.293524200009415,60.29355290000967,60.30991680000443,60.30991680000443,60.39356250000128,60.3935838000034,60.40719450000324,60.40719450000324,61.207465300001786,61.207465300001786,61.193290700000944,left,1,60.83426590000454,0.15952929999912158,58.80797410001105,,,,,,,,,,,01,01,0.1,20,10,10,20,2024-10-29_11h23.59.237,vibrotactile_experiment_test,2024.1.1,None,2024-10-29 11h24.11.162645 +0000,
Visual Only,1,right,2,0,20,9,61.207465300001786,,,,,,,,,,,,,61.19381470000371,61.207465300001786,61.442986900001415,61.44300579999981,61.45790970000962,62.942843199998606,62.94286250000005,62.95800460000464,62.95800460000464,63.04408110000077,63.04410230000212,63.057589000003645,63.057589000003645,63.857749000002514,63.857749000002514,63.84325620000891,right,1,63.418273600007524,0.1356390000000829,61.45790970000962,62.95800460000464,63.057589000003645,63.057589000003645,,,,,,,,01,01,0.1,20,10,10,20,2024-10-29_11h23.59.237,vibrotactile_experiment_test,2024.1.1,None,2024-10-29 11h24.11.162645 +0000,
Visual Only,-5,left,2,1,21,6,63.857749000002514,,,,,,,,,,,,,63.843795400011004,63.857749000002514,64.093271500009,64.09328909999749,64.10762229999818,65.59574350000184,65.59578990000591,65.61022349999985,65.61022349999985,65.69348170000012,65.69353790000605,65.70764670000062,65.70764670000062,,,66.49413089999871,left,1,66.01788260000467,0.15228219999698922,64.10762229999818,,,,,,,,,,,01,01,0.1,20,10,10,20,2024-10-29_11h23.59.237,vibrotactile_experiment_test,2024.1.1,None,2024-10-29 11h24.11.162645 +0000,
Visual Only,-20,left,2,2,22,0,66.5100642000034,,,,,,,,,,,,,66.49466399999801,66.5100642000034,66.7598219000065,66.75983730000735,66.7741093000077,68.25916670000879,68.25918120000279,68.2759659000003,68.2759659000003,68.34609800000908,68.34611330000916,68.35758750000969,68.35758750000969,,,69.13064460000896,left,1,68.72980159999861,0.15222760000324342,,,,,,,,,,,,01,01,0.1,20,10,10,20,2024-10-29_11h23.59.237,vibrotactile_experiment_test,2024.1.1,None,2024-10-29 11h24.11.162645 +0000,
Visual Only,-10,left,2,3,23,4,69.14075330000196,,,,,,,,,,,,,69.1311049000069,69.14075330000196,69.3767283000052,69.37674320000224,69.39076560000831,70.8765041000006,70.87651919999917,70.89094800000021,70.89094800000021,70.97676710000087,70.97678680000536,70.99075989999983,70.99075989999983,,,71.77864530000079,left,1,71.28220180000062,0.1437700000096811,69.39076560000831,70.89094800000021,70.99075989999983,70.99075989999983,,,,,,,,01,01,0.1,20,10,10,20,2024-10-29_11h23.59.237,vibrotactile_experiment_test,2024.1.1,None,2024-10-29 11h24.11.162645 +0000,
Visual Only,-15,left,2,4,24,2,71.79060220000974,,,,,,,,,,,,,71.77910739999788,71.79060220000974,72.02687960000185,72.02689900000405,72.0409084999992,73.52580719999969,73.52582090000215,73.54119109999738,73.54119109999738,73.61314380000113,73.6131977000041,73.62605990000884,73.62605990000884,74.42754099999729,74.42754099999729,74.41101530000742,left,1,73.90650520000781,0.1351728000008734,72.0409084999992,73.54119109999738,,,,,,,,,,01,01,0.1,20,10,10,20,2024-10-29_11h23.59.237,vibrotactile_experiment_test,2024.1.1,None,2024-10-29 11h24.11.162645 +0000,
Visual Only,5,right,2,5,25,7,74.42754099999729,,,,,,,,,,,,,74.41151950000494,74.42754099999729,74.66460810000717,74.66462190001039,74.67544649999763,76.1754859000066,76.17550019999908,76.19420379999792,76.19420379999792,76.25958500000706,76.25960560000385,76.2737988000008,76.2737988000008,77.07409629999893,77.07409629999893,77.05926780001028,right,1,76.66656560001138,0.12814639999123756,,,,,,,,,,,,01,01,0.1,20,10,10,20,2024-10-29_11h23.59.237,vibrotactile_experiment_test,2024.1.1,None,2024-10-29 11h24.11.162645 +0000,
Visual Only,10,right,2,6,26,5,77.07409629999893,,,,,,,,,,,,,77.05980490001093,77.07409629999893,77.30948050000006,77.3094945000048,77.32431409999845,78.81015950000437,78.81017920000886,78.82402390000061,78.82402390000061,78.90969380000024,78.90971600000921,78.92422060000536,78.92422060000536,79.72374250000576,79.72374250000576,79.70898150000721,right,1,79.29788830000325,0.14476369999465533,77.32431409999845,78.82402390000061,78.92422060000536,78.92422060000536,,,,,,,,01,01,0.1,20,10,10,20,2024-10-29_11h23.59.237,vibrotactile_experiment_test,2024.1.1,None,2024-10-29 11h24.11.162645 +0000,
Visual Only,15,right,2,7,27,3,79.72374250000576,,,,,,,,,,,,,79.70960750000086,79.72374250000576,79.95961430000898,79.95964650000678,79.97422600000573,81.45939869999711,81.45941160000802,81.4742311000009,81.4742311000009,81.56176890000643,81.56178430000728,81.59163629999966,81.59163629999966,,,82.35976289999962,right,1,81.88210610000533,0.14421600000059698,79.97422600000573,81.4742311000009,,,,,,,,,,01,01,0.1,20,10,10,20,2024-10-29_11h23.59.237,vibrotactile_experiment_test,2024.1.1,None,2024-10-29 11h24.11.162645 +0000,
Visual Only,20,right,2,8,28,1,82.37397470000724,,,,,,,,,,,,,82.36048280000978,82.37397470000724,82.6140338999976,82.61405060000834,82.62629220000235,84.1260414999997,84.12605669999903,84.14135440000973,84.14135440000973,84.21027560000948,84.21030649999739,84.22443390000262,84.22443390000262,,,84.99643440000364,right,1,84.51430029999756,0.13556620001327246,,,,,,,,,,,,01,01,0.1,20,10,10,20,2024-10-29_11h23.59.237,vibrotactile_experiment_test,2024.1.1,None,2024-10-29 11h24.11.162645 +0000,
Visual Only,-1,left,2,9,29,8,85.007577700002,,,,,,,,,,,,,84.99702629999956,85.007577700002,85.24286690000736,85.24288380000507,85.25779370000237,86.7426162000047,86.74263320000318,86.7578349000105,86.7578349000105,86.84675130000687,86.84676890000992,86.85785020000185,86.85785020000185,87.65967970000929,87.65967970000929,87.64511440000206,left,1,87.50614199999836,None,85.25779370000237,86.7578349000105,86.85785020000185,86.85785020000185,,,,,,,,01,01,0.1,20,10,10,20,2024-10-29_11h23.59.237,vibrotactile_experiment_test,2024.1.1,None,2024-10-29 11h24.11.162645 +0000,
Visual Only,5,right,3,0,30,7,87.65967970000929,,,,,,,,,,,,,87.64588470000308,87.65967970000929,87.90982050000457,87.90984279999975,87.92482290000771,89.40955229999963,89.4095718000026,89.42401950000203,89.42401950000203,89.49319110000215,89.4932189000101,89.50836320000235,89.50836320000235,90.307172300003,90.307172300003,90.29347499999858,right,1,89.8899367999984,0.12035779999860097,,,,,,,,,,,,01,01,0.1,20,10,10,20,2024-10-29_11h23.59.237,vibrotactile_experiment_test,2024.1.1,None,2024-10-29 11h24.11.162645 +0000,
Visual Only,-10,left,3,1,31,4,90.307172300003,,,,,,,,,,,,,90.2943180000002,90.307172300003,90.54326410000795,90.54327860000194,90.55745629999728,92.04258639999898,92.04260080000677,92.05742450000253,92.05742450000253,92.14270360000955,92.14272580000397,92.15760260001116,92.15760260001116,,,92.94298030000937,left,1,92.45063250001112,0.11147530000016559,90.55745629999728,92.05742450000253,92.15760260001116,92.15760260001116,,,,,,,,01,01,0.1,20,10,10,20,2024-10-29_11h23.59.237,vibrotactile_experiment_test,2024.1.1,None,2024-10-29 11h24.11.162645 +0000,
Visual Only,-1,left,3,2,32,8,92.95762590000231,,,,,,,,,,,,,92.94346629999927,92.95762590000231,93.19310630000837,93.19312100000388,93.20747390000906,94.69345570000587,94.69348240000545,94.70741380000254,94.70741380000254,94.79319880000548,94.79325030000473,94.80734559999837,94.80734559999837,,,95.59860620000109,right,0,95.2181808000023,0.13559190000523813,,,94.80734559999837,94.80734559999837,,,,,,,,01,01,0.1,20,10,10,20,2024-10-29_11h23.59.237,vibrotactile_experiment_test,2024.1.1,None,2024-10-29 11h24.11.162645 +0000,
Visual Only,1,right,3,3,33,9,95.60948189999908,,,,,,,,,,,,,95.59906550000596,95.60948189999908,95.84562930000538,95.84564379999938,95.8574440000084,97.34560850000707,97.34563399999752,97.35762930000783,97.35762930000783,97.44575890000851,97.44577430000936,97.45764920000511,97.45764920000511,98.25838559999829,98.25838559999829,98.2425232000096,right,1,97.80179450000287,0.13689360000716988,,,,,,,,,,,,01,01,0.1,20,10,10,20,2024-10-29_11h23.59.237,vibrotactile_experiment_test,2024.1.1,None,2024-10-29 11h24.11.162645 +0000,
Visual Only,20,right,3,4,34,1,98.25838559999829,,,,,,,,,,,,,98.24303920000966,98.25838559999829,98.49303090000467,98.49304960000154,98.50775140000042,99.99310390000755,99.99312250000366,100.00789950000762,100.00789950000762,100.09297170001082,100.09299200000532,100.10744669999985,100.10744669999985,100.90771030000178,100.90771030000178,100.89318549999734,right,1,100.52210699999705,0.13627160000032745,98.50775140000042,100.00789950000762,,,,,,,,,,01,01,0.1,20,10,10,20,2024-10-29_11h23.59.237,vibrotactile_experiment_test,2024.1.1,None,2024-10-29 11h24.11.162645 +0000,
Visual Only,10,right,3,5,35,5,100.90771030000178,,,,,,,,,,,,,100.89397170000302,100.90771030000178,101.1435763000045,101.14359580000746,101.16010360000655,102.64763250001124,102.64764940000896,102.66218320000917,102.66218320000917,102.74397730000783,102.74400620000961,102.76223700000264,102.76223700000264,,,103.54549610000686,right,1,103.11419720000413,0.12839480000548065,101.16010360000655,,,,,,,,,,,01,01,0.1,20,10,10,20,2024-10-29_11h23.59.237,vibrotactile_experiment_test,2024.1.1,None,2024-10-29 11h24.11.162645 +0000,
Visual Only,-15,left,3,6,36,2,103.55725850000454,,,,,,,,,,,,,103.54593770000793,103.55725850000454,103.79594870000437,103.79596280000987,103.80759090000356,105.2929346000019,105.29295450000791,105.3080564999982,105.3080564999982,105.39343219999864,105.39345730000059,105.40737510001054,105.40737510001054,106.20721059999778,106.20721059999778,106.19251530000474,left,1,105.75391100000707,0.17627209999773186,,105.3080564999982,105.40737510001054,105.40737510001054,,,,,,,,01,01,0.1,20,10,10,20,2024-10-29_11h23.59.237,vibrotactile_experiment_test,2024.1.1,None,2024-10-29 11h24.11.162645 +0000,
Visual Only,-5,left,3,7,37,6,106.20721059999778,,,,,,,,,,,,,106.19306070001039,106.20721059999778,106.44311829999788,106.44316380000964,106.45799029999762,107.94242040000972,107.94243590001133,107.95813870000711,107.95813870000711,108.04319270000269,108.04321390000405,108.05784710000444,108.05784710000444,108.85755480000807,108.85755480000807,108.84337889999733,left,1,108.41865120000148,0.1437634000030812,,107.95813870000711,108.05784710000444,108.05784710000444,,,,,,,,01,01,0.1,20,10,10,20,2024-10-29_11h23.59.237,vibrotactile_experiment_test,2024.1.1,None,2024-10-29 11h24.11.162645 +0000,
Visual Only,15,right,3,8,38,3,108.85755480000807,,,,,,,,,,,,,108.84388230000332,108.85755480000807,109.09211550001055,109.09213280001131,109.10759830000461,110.59366870000667,110.59368770000583,110.6096433000057,110.6096433000057,110.6930660000071,110.69308720000845,110.71208579999802,110.71208579999802,,,111.49311970001145,right,1,111.04180960000667,0.13666010000451934,109.10759830000461,110.6096433000057,,,,,,,,,,01,01,0.1,20,10,10,20,2024-10-29_11h23.59.237,vibrotactile_experiment_test,2024.1.1,None,2024-10-29 11h24.11.162645 +0000,
Visual Only,-20,left,3,9,39,0,111.50774510001065,,,,,,,,,,,,,111.49368130000948,111.50774510001065,111.74359740001091,111.74361780000618,111.75776780000888,113.24312379999901,113.24314610000874,113.25863830000162,113.25863830000162,113.34373310000228,113.34375700000965,113.3584497999982,113.3584497999982,,,114.14262430000235,left,1,113.65824230000726,0.16780549999384675,,113.25863830000162,113.3584497999982,113.3584497999982,,,,,,,,01,01,0.1,20,10,10,20,2024-10-29_11h23.59.237,vibrotactile_experiment_test,2024.1.1,None,2024-10-29 11h24.11.162645 +0000,
Visual Only,-10,left,4,0,40,4,114.15757970001141,,,,,,,,,,,,,114.14318900000944,114.15757970001141,114.39286140000331,114.39287989999866,114.40792620000138,115.89256780000869,115.89258450000489,115.90821999999753,115.90821999999753,115.99328930000775,115.9933078000031,116.00829260000319,116.00829260000319,,,116.79281890000857,left,1,116.33009010000387,0.1518214999960037,114.40792620000138,115.90821999999753,116.00829260000319,116.00829260000319,,,,,,,,01,01,0.1,20,10,10,20,2024-10-29_11h23.59.237,vibrotactile_experiment_test,2024.1.1,None,2024-10-29 11h24.11.162645 +0000,
Visual Only,5,right,4,1,41,7,116.80755450000288,,,,,,,,,,,,,116.79334280001058,116.80755450000288,117.04301090000081,117.04302920000919,117.057077999998,118.54295300001104,118.54298710000876,118.55820610000228,118.55820610000228,118.62900830000581,118.62903180001013,118.6429172000062,118.6429172000062,,,119.42656940000597,right,1,118.98656520000077,0.14346990000922233,117.057077999998,118.55820610000228,,,,,,,,,,01,01,0.1,20,10,10,20,2024-10-29_11h23.59.237,vibrotactile_experiment_test,2024.1.1,None,2024-10-29 11h24.11.162645 +0000,
Visual Only,15,right,4,2,42,3,119.44105629999831,,,,,,,,,,,,,119.42711380000401,119.44105629999831,119.6760273000109,119.6760462000093,119.691659300006,121.17665880000277,121.17667850000726,121.19079690000217,121.19079690000217,121.27651080000214,121.27652939999825,121.29403140000068,121.29403140000068,,,122.07607999999891,right,1,121.61778739999863,0.1604661000019405,119.691659300006,121.19079690000217,121.29403140000068,121.29403140000068,,,,,,,,01,01,0.1,20,10,10,20,2024-10-29_11h23.59.237,vibrotactile_experiment_test,2024.1.1,None,2024-10-29 11h24.11.162645 +0000,
Visual Only,10,right,4,3,43,5,122.09070500000962,,,,,,,,,,,,,122.07662780000828,122.09070500000962,122.32597920000262,122.32599550001032,122.34072240001115,123.82648139999947,123.82650130000548,123.84411370000453,123.84411370000453,123.92714310000883,123.92719560000114,123.94146890001139,123.94146890001139,124.74099780000688,124.74099780000688,124.72676010000578,right,1,124.28322130000743,0.15066339999611955,122.34072240001115,123.84411370000453,,,,,,,,,,01,01,0.1,20,10,10,20,2024-10-29_11h23.59.237,vibrotactile_experiment_test,2024.1.1,None,2024-10-29 11h24.11.162645 +0000,
Visual Only,1,right,4,4,44,9,124.74099780000688,,,,,,,,,,,,,124.72730030000093,124.74099780000688,124.97583490000397,124.97585040000558,124.99090020000585,126.47657340001024,126.47659279999789,126.49070999999822,126.49070999999822,126.57677060000424,126.57679360000475,126.59299250000913,126.59299250000913,,,127.37699879999855,right,1,127.25810849999834,None,124.99090020000585,126.49070999999822,126.59299250000913,126.59299250000913,,,,,,,,01,01,0.1,20,10,10,20,2024-10-29_11h23.59.237,vibrotactile_experiment_test,2024.1.1,None,2024-10-29 11h24.11.162645 +0000,
Visual Only,-1,left,4,5,45,8,127.3911012000026,,,,,,,,,,,,,127.37752460000047,127.3911012000026,127.62836750000133,127.62841340000159,127.642084600011,129.1427437000093,129.14275920001091,129.1573725000053,129.1573725000053,129.2258950000105,129.22591570000804,129.2405623000086,129.2405623000086,,,130.02641839999706,left,1,129.66614230000414,0.13635210000211373,,,,,,,,,,,,01,01,0.1,20,10,10,20,2024-10-29_11h23.59.237,vibrotactile_experiment_test,2024.1.1,None,2024-10-29 11h24.11.162645 +0000,
Visual Only,-15,left,4,6,46,2,130.04086000000825,,,,,,,,,,,,,130.02693800000998,130.04086000000825,130.27691870000854,130.2769333000033,130.290751499997,131.7769694000017,131.7769843999995,131.79113610000059,131.79113610000059,131.87678800000867,131.87680389999878,131.89073080000526,131.89073080000526,,,132.6648653000011,left,1,132.24254700000165,0.12012880000111181,,,,,,,,,,,,01,01,0.1,20,10,10,20,2024-10-29_11h23.59.237,vibrotactile_experiment_test,2024.1.1,None,2024-10-29 11h24.11.162645 +0000,
Visual Only,-5,left,4,7,47,6,132.67406260001007,,,,,,,,,,,,,132.6653290000104,132.67406260001007,132.90937590000976,132.9093944000051,132.92392890001065,134.40969179999956,134.40970709999965,134.42502819999936,134.42502819999936,134.50973669999803,134.50975870000548,134.5271858000051,134.5271858000051,,,135.31003990001045,left,1,134.91426630000933,0.11957919999258593,132.92392890001065,134.42502819999936,134.5271858000051,134.5271858000051,,,,,,,,01,01,0.1,20,10,10,20,2024-10-29_11h23.59.237,vibrotactile_experiment_test,2024.1.1,None,2024-10-29 11h24.11.162645 +0000,
Visual Only,-20,left,4,8,48,0,135.32668769999873,,,,,,,,,,,,,135.31094940000912,135.32668769999873,135.57864730000438,135.57869570000912,135.59291089999897,137.06207729999733,137.0620928999997,137.07420270000875,137.07420270000875,137.15951040000073,137.1595343000081,137.1742893000046,137.1742893000046,137.97396160000062,137.97396160000062,137.9598655000009,left,1,137.47402069999953,0.15973610000219196,,,137.1742893000046,137.1742893000046,,,,,,,,01,01,0.1,20,10,10,20,2024-10-29_11h23.59.237,vibrotactile_experiment_test,2024.1.1,None,2024-10-29 11h24.11.162645 +0000,
Visual Only,20,right,4,9,49,1,137.97396160000062,,,,,,,,,,,,,137.96039360000577,137.97396160000062,138.20921650000673,138.209236900002,138.22423310000158,139.70976040000096,139.70977850000781,139.72435910000058,139.72435910000058,139.81047599999874,139.81050030000915,139.82478400001128,139.82478400001128,,,140.59623860000283,right,1,140.12251060000563,0.1356995999958599,138.22423310000158,139.72435910000058,139.82478400001128,139.82478400001128,,,,,,,,01,01,0.1,20,10,10,20,2024-10-29_11h23.59.237,vibrotactile_experiment_test,2024.1.1,None,2024-10-29 11h24.11.162645 +0000,
Visual Only,-20,left,5,0,50,0,140.60905700000876,,,,,,,,,,,,,140.5968611999997,140.60905700000876,140.86262749999878,140.86264330000267,140.87440790000255,142.35966760000156,142.35969160000968,142.37460219999775,142.37460219999775,142.44335700001102,142.44338040000002,142.4576786000107,142.4576786000107,143.25817830000597,143.25817830000597,143.24269990000175,left,1,142.77055890001066,0.12724569998681545,,,,,,,,,,,,01,01,0.1,20,10,10,20,2024-10-29_11h23.59.237,vibrotactile_experiment_test,2024.1.1,None,2024-10-29 11h24.11.162645 +0000,
Visual Only,5,right,5,1,51,7,143.25817830000597,,,,,,,,,,,,,143.24324599999818,143.25817830000597,143.493484000006,143.4935003999999,143.50765680000768,144.99328780001088,144.99330620000546,145.00767300000007,145.00767300000007,145.09300690000237,145.0930248000077,145.1077854000032,145.1077854000032,145.90736730000935,145.90736730000935,145.89299780000874,right,1,145.42609190000803,0.1441770999954315,143.50765680000768,145.00767300000007,145.1077854000032,145.1077854000032,,,,,,,,01,01,0.1,20,10,10,20,2024-10-29_11h23.59.237,vibrotactile_experiment_test,2024.1.1,None,2024-10-29 11h24.11.162645 +0000,
Visual Only,-15,left,5,2,52,2,145.90736730000935,,,,,,,,,,,,,145.89355620001152,145.90736730000935,146.14315180000267,146.14316820001113,146.15798540000105,147.6445659000019,147.644583900008,147.6599292000028,147.6599292000028,147.74379639999825,147.74382170000172,147.757537700003,147.757537700003,148.55758980000974,148.55758980000974,148.54267059999984,left,1,148.0737572000071,0.1040519999951357,146.15798540000105,,,,,,,,,,,01,01,0.1,20,10,10,20,2024-10-29_11h23.59.237,vibrotactile_experiment_test,2024.1.1,None,2024-10-29 11h24.11.162645 +0000,
Visual Only,15,right,5,3,53,3,148.55758980000974,,,,,,,,,,,,,148.5431998999993,148.55758980000974,148.7940784000093,148.79412220000813,148.80725650000386,150.29383350000717,150.29388250000193,150.30800780000573,150.30800780000573,150.39272309999797,150.3927437000093,150.4078021000023,150.4078021000023,,,151.17902320000576,right,1,150.6672763000097,0.10249649999605026,,,150.4078021000023,150.4078021000023,,,,,,,,01,01,0.1,20,10,10,20,2024-10-29_11h23.59.237,vibrotactile_experiment_test,2024.1.1,None,2024-10-29 11h24.11.162645 +0000,
Visual Only,-10,left,5,4,54,4,151.19071229999827,,,,,,,,,,,,,151.1794901000103,151.19071229999827,151.42745050000667,151.42748490000668,151.44129750000138,152.92674760000955,152.92676640000718,152.94135330000427,152.94135330000427,153.02703979999933,153.02706190000754,153.04152820000309,153.04152820000309,153.84051900000486,153.84051900000486,153.82613539999875,left,1,153.32997920000344,0.12827539999852888,151.44129750000138,152.94135330000427,153.04152820000309,153.04152820000309,,,,,,,,01,01,0.1,20,10,10,20,2024-10-29_11h23.59.237,vibrotactile_experiment_test,2024.1.1,None,2024-10-29 11h24.11.162645 +0000,
Visual Only,-1,left,5,5,55,8,153.84051900000486,,,,,,,,,,,,,153.82666070001142,153.84051900000486,154.07581710000522,154.07583560000057,154.09088170000177,155.5763253000041,155.57634739999776,155.59346509999887,155.59346509999887,155.66480440000305,155.66482350000297,155.67393640000955,155.67393640000955,156.47427730000345,156.47427730000345,156.45970590000798,right,0,156.0984945000091,0.10398369999893475,154.09088170000177,155.59346509999887,,,,,,,,,,01,01,0.1,20,10,10,20,2024-10-29_11h23.59.237,vibrotactile_experiment_test,2024.1.1,None,2024-10-29 11h24.11.162645 +0000,
Visual Only,10,right,5,6,56,5,156.47427730000345,,,,,,,,,,,,,156.46023270000296,156.47427730000345,156.70930830000725,156.70932480000192,156.72737350000534,158.22633250000945,158.2263482999988,158.24102339999808,158.24102339999808,158.30970050000178,158.3097248999984,158.32384009999805,158.32384009999805,159.12526330001128,159.12526330001128,159.1095733000111,right,1,158.6183708000026,0.13685690000420436,156.72737350000534,,,,,,,,,,,01,01,0.1,20,10,10,20,2024-10-29_11h23.59.237,vibrotactile_experiment_test,2024.1.1,None,2024-10-29 11h24.11.162645 +0000,
Visual Only,1,right,5,7,57,9,159.12526330001128,,,,,,,,,,,,,159.11008270000457,159.12526330001128,159.3767719000025,159.37678669999877,159.39065820000542,160.87635910000245,160.87637520000862,160.8909047000052,160.8909047000052,160.95957089999865,160.959600400005,160.9744412,160.9744412,,,161.74605200000224,right,1,161.5300980000029,0.1362105000007432,,,,,,,,,,,,01,01,0.1,20,10,10,20,2024-10-29_11h23.59.237,vibrotactile_experiment_test,2024.1.1,None,2024-10-29 11h24.11.162645 +0000,
Visual Only,-5,left,5,8,58,6,161.75743680000596,,,,,,,,,,,,,161.7465080000111,161.75743680000596,161.99666669999715,161.99668330000713,162.0071617000067,163.49328700000478,163.49330519999785,163.50815770000918,163.50815770000918,163.5955743000086,163.59559670000453,163.6099813000037,163.6099813000037,,,164.3943847000046,left,1,163.93845890001103,0.1196491999871796,162.0071617000067,163.50815770000918,163.6099813000037,163.6099813000037,,,,,,,,01,01,0.1,20,10,10,20,2024-10-29_11h23.59.237,vibrotactile_experiment_test,2024.1.1,None,2024-10-29 11h24.11.162645 +0000,
Visual Only,20,right,5,9,59,1,164.4072615000041,,,,,,,,,,,,,164.39503880000848,164.4072615000041,164.64484720000473,164.64487760000338,164.65721289999783,166.14274890000524,166.14276820000669,166.15805660000478,166.15805660000478,166.24314109999978,166.24315860000206,166.25803019999876,166.25803019999876,167.05732310000167,167.05732310000167,167.0431518000114,right,1,166.57811519999814,0.10381580000102986,164.65721289999783,166.15805660000478,166.25803019999876,166.25803019999876,,,,,,,,01,01,0.1,20,10,10,20,2024-10-29_11h23.59.237,vibrotactile_experiment_test,2024.1.1,None,2024-10-29 11h24.11.162645 +0000,
Visual Only,-10,left,6,0,60,4,167.05732310000167,,,,,,,,,,,,,167.0436628000025,167.05732310000167,167.29271249999874,167.29274800000712,167.30789510000614,168.79275710000366,168.7927736999991,168.8074551000027,168.8074551000027,168.893596599999,168.89362590000383,168.90806010000233,168.90806010000233,,,169.6783901000017,left,1,169.1780349000037,0.10387900000205263,167.30789510000614,168.8074551000027,,,,,,,,,,01,01,0.1,20,10,10,20,2024-10-29_11h23.59.237,vibrotactile_experiment_test,2024.1.1,None,2024-10-29 11h24.11.162645 +0000,
Visual Only,5,right,6,1,61,7,169.6925515000039,,,,,,,,,,,,,169.6789024000027,169.6925515000039,169.94235150000895,169.94236670000828,169.95774120000715,171.44302679999964,171.44304300000658,171.4582134000084,171.4582134000084,171.52638090000255,171.52640620000602,171.5408626999997,171.5408626999997,,,172.3289963999996,right,1,171.84170380000432,0.13722259999485686,,,,,,,,,,,,01,01,0.1,20,10,10,20,2024-10-29_11h23.59.237,vibrotactile_experiment_test,2024.1.1,None,2024-10-29 11h24.11.162645 +0000,
Visual Only,-20,left,6,2,62,0,172.34133950000978,,,,,,,,,,,,,172.3294509999978,172.34133950000978,172.57619360000535,172.57621389999986,172.59232209999755,174.0928225000098,174.09283920000598,174.10730090001016,174.10730090001016,174.17912760000036,174.17914340000425,174.19049819999782,174.19049819999782,,,174.97956770000746,left,1,174.45851270000276,0.11198719999811146,172.59232209999755,,,,,,,,,,,01,01,0.1,20,10,10,20,2024-10-29_11h23.59.237,vibrotactile_experiment_test,2024.1.1,None,2024-10-29 11h24.11.162645 +0000,
Visual Only,-1,left,6,3,63,8,174.9940273000102,,,,,,,,,,,,,174.98001810000278,174.9940273000102,175.22879350000585,175.2288084000029,175.24356909999915,176.742736900007,176.74275150000176,176.7583852000098,176.7583852000098,176.82638260000385,176.82640289999836,176.84022240000195,176.84022240000195,,,177.61297660000855,left,1,177.53886729999795,None,,,,,,,,,,,,01,01,0.1,20,10,10,20,2024-10-29_11h23.59.237,vibrotactile_experiment_test,2024.1.1,None,2024-10-29 11h24.11.162645 +0000,
Visual Only,-15,left,6,4,64,2,177.62473200001114,,,,,,,,,,,,,177.61383699999715,177.62473200001114,177.85955839999951,177.85957320001035,177.87396060000174,179.3595675000106,179.35958270000992,179.3749489000038,179.3749489000038,179.46279460001097,179.46282500000962,179.47402090000105,179.47402090000105,180.27462150000792,180.27462150000792,180.2600022000115,left,1,179.78643170000578,0.11968079999496695,177.87396060000174,179.3749489000038,179.47402090000105,179.47402090000105,,,,,,,,01,01,0.1,20,10,10,20,2024-10-29_11h23.59.237,vibrotactile_experiment_test,2024.1.1,None,2024-10-29 11h24.11.162645 +0000,
Visual Only,-5,left,6,5,65,6,180.27462150000792,,,,,,,,,,,,,180.26052789999812,180.27462150000792,180.51018840000324,180.51020980000612,180.52475760001107,182.00972830000683,182.00974760000827,182.02389520000725,182.02389520000725,182.09629230000428,182.09631069999887,182.10712490000878,182.10712490000878,182.9107367000106,182.9107367000106,182.8930046000023,left,1,182.63382430000638,0.12014389999967534,180.52475760001107,182.02389520000725,,,,,,,,,,01,01,0.1,20,10,10,20,2024-10-29_11h23.59.237,vibrotactile_experiment_test,2024.1.1,None,2024-10-29 11h24.11.162645 +0000,
Visual Only,15,right,6,6,66,3,182.9107367000106,,,,,,,,,,,,,182.89354090001143,182.9107367000106,183.15871990000596,183.15873460000148,183.17447050000192,184.64513990000705,184.64519130000554,184.65791770000942,184.65791770000942,184.74270090000937,184.74272740000742,184.7577605000115,184.7577605000115,,,185.5461614000087,right,1,185.0262234999973,0.12838410001131706,,,184.7577605000115,184.7577605000115,,,,,,,,01,01,0.1,20,10,10,20,2024-10-29_11h23.59.237,vibrotactile_experiment_test,2024.1.1,None,2024-10-29 11h24.11.162645 +0000,
Visual Only,1,right,6,7,67,9,185.55775970000832,,,,,,,,,,,,,185.54667550000886,185.55775970000832,185.79241010000987,185.79242579999845,185.80762340000365,187.29286929999944,187.2928896000085,187.30734330000996,187.30734330000996,187.39306110001053,187.393083700008,187.4078881000023,187.4078881000023,188.21029309999722,188.21029309999722,188.1929525000014,right,1,187.9624014000001,0.15182300000742543,185.80762340000365,187.30734330000996,187.4078881000023,187.4078881000023,,,,,,,,01,01,0.1,20,10,10,20,2024-10-29_11h23.59.237,vibrotactile_experiment_test,2024.1.1,None,2024-10-29 11h24.11.162645 +0000,
Visual Only,10,right,6,8,68,5,188.21029309999722,,,,,,,,,,,,,188.1934781000018,188.21029309999722,188.45927020000818,188.45928520000598,188.47382910001033,189.95908070000587,189.9590959000052,189.97424409999803,189.97424409999803,190.0431596999988,190.04318819999753,190.0571237000113,190.0571237000113,,,190.84612339999876,right,1,190.38613549999718,0.1282052000024123,,,,,,,,,,,,01,01,0.1,20,10,10,20,2024-10-29_11h23.59.237,vibrotactile_experiment_test,2024.1.1,None,2024-10-29 11h24.11.162645 +0000,
Visual Only,20,right,6,9,69,1,190.85753880000266,,,,,,,,,,,,,190.84662670000398,190.85753880000266,191.09235289999924,191.09237969999958,191.1075514999975,192.59520510000584,192.59525520000898,192.60894160000316,192.60894160000316,192.69331390000298,192.69332840001152,192.70744140000897,192.70744140000897,,,193.4807096000004,right,1,193.0338763000036,0.09635700000217184,191.1075514999975,,,,,,,,,,,01,01,0.1,20,10,10,20,2024-10-29_11h23.59.237,vibrotactile_experiment_test,2024.1.1,None,2024-10-29 11h24.11.162645 +0000,
Visual Only,20,right,7,0,70,1,193.4904072000063,,,,,,,,,,,,,193.48118430000613,193.4904072000063,193.72674690000713,193.72676590000628,193.74644800000533,195.2462349999987,195.24624980000954,195.25734530000773,195.25734530000773,195.32597410000744,195.32600100000855,195.34098180000728,195.34098180000728,,,196.12851510000473,right,1,195.64253409999947,0.13554390000354033,193.74644800000533,,,,,,,,,,,01,01,0.1,20,10,10,20,2024-10-29_11h23.59.237,vibrotactile_experiment_test,2024.1.1,None,2024-10-29 11h24.11.162645 +0000,
Visual Only,-10,left,7,1,71,4,196.14213059999747,,,,,,,,,,,,,196.12905400000454,196.14213059999747,196.37690499999735,196.37692730000708,196.39091380000173,197.87659030000214,197.87661050001043,197.89157940000587,197.89157940000587,197.9762339000008,197.976250599997,197.990902000005,197.990902000005,,,198.7761995000037,left,1,198.329665199999,0.11297360000025947,,,,,,,,,,,,01,01,0.1,20,10,10,20,2024-10-29_11h23.59.237,vibrotactile_experiment_test,2024.1.1,None,2024-10-29 11h24.11.162645 +0000,
Visual Only,1,right,7,2,72,9,198.7911579000065,,,,,,,,,,,,,198.777030199999,198.7911579000065,199.02627010000288,199.02629239999806,199.04075320000993,200.52618070000608,200.52620130000287,200.5438329000026,200.5438329000026,200.61222750000888,200.6122502000071,200.6260379000014,200.6260379000014,,,201.41237730000285,right,1,200.9553098000033,0.10320559999672696,199.04075320000993,,,,,,,,,,,01,01,0.1,20,10,10,20,2024-10-29_11h23.59.237,vibrotactile_experiment_test,2024.1.1,None,2024-10-29 11h24.11.162645 +0000,
Visual Only,-20,left,7,3,73,0,201.4242668000079,,,,,,,,,,,,,201.41283670000848,201.4242668000079,201.66543100000126,201.6654462000006,201.67428089999885,203.1594841000042,203.15950380000868,203.1746048000059,203.1746048000059,203.26001330000872,203.26003600000695,203.2745844000019,203.2745844000019,,,204.06026340000972,left,1,203.59453090000898,0.13539149999269284,,203.1746048000059,203.2745844000019,203.2745844000019,,,,,,,,01,01,0.1,20,10,10,20,2024-10-29_11h23.59.237,vibrotactile_experiment_test,2024.1.1,None,2024-10-29 11h24.11.162645 +0000,
Visual Only,5,right,7,4,74,7,204.07460330000322,,,,,,,,,,,,,204.06078420000267,204.07460330000322,204.31035340001108,204.3103712000011,204.32436060000327,205.8096843000094,205.80970270000398,205.82468200000585,205.82468200000585,205.90950330000487,205.9095224000048,205.92395670000406,205.92395670000406,,,206.7129305999988,right,1,206.20172280000406,0.11256619999767281,204.32436060000327,205.82468200000585,205.92395670000406,205.92395670000406,,,,,,,,01,01,0.1,20,10,10,20,2024-10-29_11h23.59.237,vibrotactile_experiment_test,2024.1.1,None,2024-10-29 11h24.11.162645 +0000,
Visual Only,15,right,7,5,75,3,206.7247764000058,,,,,,,,,,,,,206.71338410000317,206.7247764000058,206.9597233000095,206.95974600000773,206.97435750000295,208.45988880000368,208.4599057000014,208.4747064000112,208.4747064000112,208.55969030001143,208.55973490000179,208.57862929999828,208.57862929999828,,,209.3596688000107,right,1,208.93840140000975,0.11179239999910351,206.97435750000295,208.4747064000112,208.57862929999828,208.57862929999828,,,,,,,,01,01,0.1,20,10,10,20,2024-10-29_11h23.59.237,vibrotactile_experiment_test,2024.1.1,None,2024-10-29 11h24.11.162645 +0000,
Visual Only,10,right,7,6,76,5,209.37467370000377,,,,,,,,,,,,,209.36022550000052,209.37467370000377,209.6115456999978,209.61157350000576,209.6261308000103,211.1259543000051,211.12597020000976,211.14107350000995,211.14107350000995,211.20985160001146,211.20987640001113,211.22429120000743,211.22429120000743,212.0239780999982,212.0239780999982,212.00897619999887,right,1,211.53867510000418,0.14321530000597704,,,,,,,,,,,,01,01,0.1,20,10,10,20,2024-10-29_11h23.59.237,vibrotactile_experiment_test,2024.1.1,None,2024-10-29 11h24.11.162645 +0000,
Visual Only,-5,left,7,7,77,6,212.0239780999982,,,,,,,,,,,,,212.009518699997,212.0239780999982,212.26246179999725,212.2624775000004,212.2739251000021,213.75950359999842,213.7595219000068,213.77724239999952,213.77724239999952,213.84720570000354,213.84723810000287,213.85754300000553,213.85754300000553,214.65871990000596,214.65871990000596,214.64716160000535,left,1,214.18607789999805,0.15965810000489,,213.77724239999952,,,,,,,,,,01,01,0.1,20,10,10,20,2024-10-29_11h23.59.237,vibrotactile_experiment_test,2024.1.1,None,2024-10-29 11h24.11.162645 +0000,
Visual Only,-15,left,7,8,78,2,214.65871990000596,,,,,,,,,,,,,214.64763680000033,214.65871990000596,214.90887900000962,214.9088938000059,214.92388790000405,216.40942399999767,216.40943990000233,216.42436770000495,216.42436770000495,216.49302960000932,216.49305070000992,216.50765189999947,216.50765189999947,217.30769940000027,217.30769940000027,217.29235280001012,left,1,216.84253799999715,0.1436971000075573,,,,,,,,,,,,01,01,0.1,20,10,10,20,2024-10-29_11h23.59.237,vibrotactile_experiment_test,2024.1.1,None,2024-10-29 11h24.11.162645 +0000,
Visual Only,-1,left,7,9,79,8,217.30769940000027,,,,,,,,,,,,,217.29287509999995,217.30769940000027,217.54288610001095,217.54290130001027,217.5577661999996,219.04636900000332,219.0463843000034,219.05746570001065,219.05746570001065,219.1285196000099,219.12855140000465,219.14276830000745,219.14276830000745,,,219.926844600006,right,0,219.64265150000574,0.12835139999515377,,,,,,,,,,,,01,01,0.1,20,10,10,20,2024-10-29_11h23.59.237,vibrotactile_experiment_test,2024.1.1,None,2024-10-29 11h24.11.162645 +0000,
Visual Only,-5,left,8,0,80,6,219.9438136000099,,,,,,,,,,,,,219.9273730999994,219.9438136000099,220.19253729999764,220.19255990000966,220.20745780000289,221.68432240000402,221.6843380000064,221.72273880000284,221.72273880000284,221.77345670000068,221.77348509999865,221.80178490000253,221.80178490000253,,,222.5594729000004,None,0,,,,,,,,,,,,,,01,01,0.1,20,10,10,20,2024-10-29_11h23.59.237,vibrotactile_experiment_test,2024.1.1,None,2024-10-29 11h24.11.162645 +0000,
Visual Only,10,right,8,1,81,5,222.57722259999719,,,,,,,,,,,,,222.5599371999997,222.57722259999719,222.82663920000778,222.82666450001125,222.84083380000084,224.30994069999724,224.30996199999936,224.32449759999872,224.32449759999872,224.40964680000616,224.40967350000574,224.42466010000498,224.42466010000498,225.2268741000007,225.2268741000007,225.2092699000059,right,1,224.73872800001118,0.15271779999602586,,,224.42466010000498,224.42466010000498,,,,,,,,01,01,0.1,20,10,10,20,2024-10-29_11h23.59.237,vibrotactile_experiment_test,2024.1.1,None,2024-10-29 11h24.11.162645 +0000,
Visual Only,15,right,8,2,82,3,225.2268741000007,,,,,,,,,,,,,225.20981790000224,225.2268741000007,225.47661430000153,225.47664800001075,225.49136520001048,226.9794213999994,226.97943740000483,226.99072090000845,226.99072090000845,227.06039660000533,227.06041930000356,227.0745481000049,227.0745481000049,227.87488699999813,227.87488699999813,227.86026929999935,right,1,227.41778810000687,0.12072320000152104,,,,,,,,,,,,01,01,0.1,20,10,10,20,2024-10-29_11h23.59.237,vibrotactile_experiment_test,2024.1.1,None,2024-10-29 11h24.11.162645 +0000,
Visual Only,-1,left,8,3,83,8,227.87488699999813,,,,,,,,,,,,,227.86079649999738,227.87488699999813,228.11017710001033,228.110199200004,228.12743520000367,229.61146120000922,229.61150559999805,229.62645190001058,229.62645190001058,229.71078920000582,229.7108048000082,229.7243402000022,229.7243402000022,230.52413200000592,230.52413200000592,230.50999240000965,left,1,230.22585990000516,0.16879189999599475,228.12743520000367,,,,,,,,,,,01,01,0.1,20,10,10,20,2024-10-29_11h23.59.237,vibrotactile_experiment_test,2024.1.1,None,2024-10-29 11h24.11.162645 +0000,
Visual Only,5,right,8,4,84,7,230.52413200000592,,,,,,,,,,,,,230.51089859999774,230.52413200000592,230.7602787000069,230.76029360000393,230.77403300000879,232.26235280001129,232.26236710000376,232.2742195000028,232.2742195000028,232.34705620000022,232.3470789999992,232.35908560000826,232.35908560000826,,,233.14438100000552,right,1,232.64222010000958,0.12794880000001285,230.77403300000879,,,,,,,,,,,01,01,0.1,20,10,10,20,2024-10-29_11h23.59.237,vibrotactile_experiment_test,2024.1.1,None,2024-10-29 11h24.11.162645 +0000,
Visual Only,-20,left,8,5,85,0,233.157286200003,,,,,,,,,,,,,233.14485370001057,233.157286200003,233.39359240001068,233.39360950000992,233.40779660000408,234.8944305000041,234.89446060000046,234.90817100000277,234.90817100000277,234.9931598000112,234.99318279999716,235.00745900000038,235.00745900000038,,,235.79573019999953,left,1,235.26578950000112,0.17607200000202283,233.40779660000408,234.90817100000277,235.00745900000038,235.00745900000038,,,,,,,,01,01,0.1,20,10,10,20,2024-10-29_11h23.59.237,vibrotactile_experiment_test,2024.1.1,None,2024-10-29 11h24.11.162645 +0000,
Visual Only,-15,left,8,6,86,2,235.80728950000776,,,,,,,,,,,,,235.79621440000483,235.80728950000776,236.04295240000647,236.04296940000495,236.0574837000022,237.54285110000637,237.54286909999792,237.55709810000553,237.55709810000553,237.62878780000028,237.628813000003,237.6424807000003,237.6424807000003,,,238.42622130000382,left,1,238.0098052000103,0.17633180000120774,236.0574837000022,237.55709810000553,,,,,,,,,,01,01,0.1,20,10,10,20,2024-10-29_11h23.59.237,vibrotactile_experiment_test,2024.1.1,None,2024-10-29 11h24.11.162645 +0000,
Visual Only,-10,left,8,7,87,4,238.44129790000443,,,,,,,,,,,,,238.42675009999948,238.44129790000443,238.6786229999998,238.67864130000817,238.6908964000031,240.1756400000013,240.17565660001128,240.1914267000102,240.1914267000102,240.27682240000286,240.27684590000717,240.29121350000787,240.29121350000787,241.0934386000008,241.0934386000008,241.07601330000034,right,0,240.8101325000025,0.11965770000824705,,240.1914267000102,240.29121350000787,240.29121350000787,,,,,,,,01,01,0.1,20,10,10,20,2024-10-29_11h23.59.237,vibrotactile_experiment_test,2024.1.1,None,2024-10-29 11h24.11.162645 +0000,
Visual Only,20,right,8,8,88,1,241.0934386000008,,,,,,,,,,,,,241.07657970000582,241.0934386000008,241.3422159000038,241.34223100000236,241.3581331000023,242.8292524999997,242.82926730001054,242.84086979999847,242.84086979999847,242.92658910001046,242.92661330000556,242.94348610000452,242.94348610000452,,,243.7264009000064,right,1,243.24251019999792,0.14357949999975972,,,242.94348610000452,242.94348610000452,,,,,,,,01,01,0.1,20,10,10,20,2024-10-29_11h23.59.237,vibrotactile_experiment_test,2024.1.1,None,2024-10-29 11h24.11.162645 +0000,
Visual Only,1,right,8,9,89,9,243.74151570000686,,,,,,,,,,,,,243.72692270000698,243.74151570000686,243.97932880000735,243.97934430000896,243.9909073000017,245.47582430001057,245.47584359999746,245.49078590000863,245.49078590000863,245.57954250001058,245.57959049999772,245.59284370001114,245.59284370001114,,,246.3772539000056,left,0,246.19478710000112,0.1673358999978518,,245.49078590000863,,,,,,,,,,01,01,0.1,20,10,10,20,2024-10-29_11h23.59.237,vibrotactile_experiment_test,2024.1.1,None,2024-10-29 11h24.11.162645 +0000,
Visual Only,-10,left,9,0,90,4,246.39087840000866,,,,,,,,,,,,,246.3778936000017,246.39087840000866,246.63095040000917,246.63096490000316,246.64238900000055,248.14256690000184,248.14257999999973,248.16074300000037,248.16074300000037,248.22609799999918,248.22612659999868,248.24049680000462,248.24049680000462,,,249.0135653000034,left,1,248.56255480000982,0.1513137000001734,,,,,,,,,,,,01,01,0.1,20,10,10,20,2024-10-29_11h23.59.237,vibrotactile_experiment_test,2024.1.1,None,2024-10-29 11h24.11.162645 +0000,
Visual Only,20,right,9,1,91,1,249.02415750001092,,,,,,,,,,,,,249.01413560000947,249.02415750001092,249.25916830000642,249.25918660000025,249.2737746000057,250.7598924000049,250.7599104999972,250.77708359999815,250.77708359999815,250.8592914000037,250.85931430000346,250.87446479999926,250.87446479999926,,,251.6447940000071,right,1,251.17776649999723,0.14505990000907332,249.2737746000057,250.77708359999815,,,,,,,,,,01,01,0.1,20,10,10,20,2024-10-29_11h23.59.237,vibrotactile_experiment_test,2024.1.1,None,2024-10-29 11h24.11.162645 +0000,
Visual Only,5,right,9,2,92,7,251.65848040000128,,,,,,,,,,,,,251.64526760000444,251.65848040000128,251.89446999999927,251.89449279999826,251.90757060000033,253.39437310000358,253.39439339999808,253.4083093000081,253.4083093000081,253.49308520001068,253.4931101000111,253.50742320000427,253.50742320000427,254.3077825000073,254.3077825000073,254.29240070001106,right,1,253.86606570000004,0.1441981000098167,251.90757060000033,253.4083093000081,253.50742320000427,253.50742320000427,,,,,,,,01,01,0.1,20,10,10,20,2024-10-29_11h23.59.237,vibrotactile_experiment_test,2024.1.1,None,2024-10-29 11h24.11.162645 +0000,
Visual Only,-20,left,9,3,93,0,254.3077825000073,,,,,,,,,,,,,254.2929087000084,254.3077825000073,254.54300890000013,254.5430231000064,254.55778390000341,256.04282319999766,256.0428394000046,256.0576003000024,256.0576003000024,256.1428148999985,256.14283460000297,256.15744619999896,256.15744619999896,256.957739999998,256.957739999998,256.94265510000696,left,1,256.4102402999997,0.13568610000947956,,256.0576003000024,256.15744619999896,256.15744619999896,,,,,,,,01,01,0.1,20,10,10,20,2024-10-29_11h23.59.237,vibrotactile_experiment_test,2024.1.1,None,2024-10-29 11h24.11.162645 +0000,
Visual Only,1,right,9,4,94,9,256.957739999998,,,,,,,,,,,,,256.94320080000034,256.957739999998,257.1935100999981,257.19352790000266,257.207667900002,258.69345570000587,258.6934734000097,258.708223300011,258.708223300011,258.79302969999844,258.7930742000026,258.8101253000059,258.8101253000059,,,259.5950853000104,right,1,259.2737797000009,0.13650670000060927,257.207667900002,,258.8101253000059,258.8101253000059,,,,,,,,01,01,0.1,20,10,10,20,2024-10-29_11h23.59.237,vibrotactile_experiment_test,2024.1.1,None,2024-10-29 11h24.11.162645 +0000,
Visual Only,-1,left,9,5,95,8,259.60954640001,,,,,,,,,,,,,259.5956809000054,259.60954640001,259.85917500000505,259.85919050000666,259.87381210000603,261.35934510000516,261.3593602000037,261.3745983999979,261.3745983999979,261.4429725000082,261.4429952000064,261.45761110000603,261.45761110000603,262.2573709999997,262.2573709999997,262.2436607999989,left,1,262.04997180000646,0.12808779999613762,,,,,,,,,,,,01,01,0.1,20,10,10,20,2024-10-29_11h23.59.237,vibrotactile_experiment_test,2024.1.1,None,2024-10-29 11h24.11.162645 +0000,
Visual Only,-5,left,9,6,96,6,262.2573709999997,,,,,,,,,,,,,262.2441400000098,262.2573709999997,262.4930069999973,262.49302439999883,262.50761810000404,263.9933763000008,263.9933919000032,264.0108479000046,264.0108479000046,264.0793866000022,264.0794060000044,264.09090380001,264.09090380001,264.89087020000443,264.89087020000443,264.87675840000156,right,0,264.5219427999982,0.13658390000637155,262.50761810000404,264.0108479000046,,,,,,,,,,01,01,0.1,20,10,10,20,2024-10-29_11h23.59.237,vibrotactile_experiment_test,2024.1.1,None,2024-10-29 11h24.11.162645 +0000,
Visual Only,-15,left,9,7,97,2,264.89087020000443,,,,,,,,,,,,,264.87730490000104,264.89087020000443,265.1271708999993,265.127183900011,265.1434806000034,266.62817429999996,266.62822199999937,266.64307990000816,266.64307990000816,266.726150100003,266.7261781999987,266.7407968000043,266.7407968000043,267.54057930001,267.54057930001,267.52623020000465,left,1,267.1300944000104,0.17627429999993183,265.1434806000034,,,,,,,,,,,01,01,0.1,20,10,10,20,2024-10-29_11h23.59.237,vibrotactile_experiment_test,2024.1.1,None,2024-10-29 11h24.11.162645 +0000,
Visual Only,15,right,9,8,98,3,267.54057930001,,,,,,,,,,,,,267.5267029000097,267.54057930001,267.77581510000164,267.7758341000008,267.79320300000836,269.29251900000963,269.29253450001124,269.3109666000091,269.3109666000091,269.37672349999775,269.37674200000765,269.3915473000088,269.3915473000088,270.19063150000875,270.19063150000875,270.1759086000093,right,1,269.7861935999972,0.1518697000137763,267.79320300000836,,,,,,,,,,,01,01,0.1,20,10,10,20,2024-10-29_11h23.59.237,vibrotactile_experiment_test,2024.1.1,None,2024-10-29 11h24.11.162645 +0000,
Visual Only,10,right,9,9,99,5,270.19063150000875,,,,,,,,,,,,,270.176458300004,270.19063150000875,270.4259786000039,270.42599590000464,270.4407075000054,271.92623670000467,271.9262574000022,271.9413065999979,271.9413065999979,272.0266627000092,272.02668720000656,272.04081849999784,272.04081849999784,272.84046710000257,272.84046710000257,272.8264799000026,right,1,272.37031320000824,0.14390369999455288,270.4407075000054,271.9413065999979,272.04081849999784,272.04081849999784,,,,,,,,01,01,0.1,20,10,10,20,2024-10-29_11h23.59.237,vibrotactile_experiment_test,2024.1.1,None,2024-10-29 11h24.11.162645 +0000,
,,,,,,,,,,,,,,,,,,,,,,,,,,,,,,,,,,,,,,,,,,,,272.8269011000084,272.84046710000257,272.84046710000257,274.2599518000061,space,274.2503266999993,None,01,01,0.1,20,10,10,20,2024-10-29_11h23.59.237,vibrotactile_experiment_test,2024.1.1,None,2024-10-29 11h24.11.162645 +0000,
