cue_text,visual_stim_orientation,correct_answer,trials.thisRepN,trials.thisTrialN,trials.thisN,trials.thisIndex,thisRow.t,notes,initialisation.started,initialisation.stopped,start_experiment.started,text.started,key_resp.started,start_experiment.stopped,key_resp.keys,key_resp.rt,key_resp.duration,trigger.started,trigger.stopped,cue.started,text_3.started,cue.stopped,cue_to_target.started,text_4.started,cue_to_target.stopped,checkerboard.started,grating.started,checkerboard.stopped,response_period.started,response.started,text_2.started,response_period.stopped,response.keys,response.corr,grating.stopped,response.rt,response.duration,text_3.stopped,text_4.stopped,response.stopped,text_2.stopped,end_experiment.started,end_text.started,end_button.started,end_experiment.stopped,end_button.keys,end_button.rt,end_button.duration,participant,run,trial_duration,standard_vibration_freq,target_vibration_diff,standard_checkerboard_freq,high_checkerboard_freq,date,expName,psychopyVersion,frameRate,expStart,
,,,,,,,,,0.15317940000386443,0.1539554000046337,,,,,,,,,,,,,,,,,,,,,,,,,,,,,,,,,,,,,,,01,01,0.25,20,10,10,20,2024-10-29_11h56.57.867,vibrotactile_experiment_test,2024.1.1,None,2024-10-29 11h57.08.894055 +0000,
,,,,,,,,,,,0.1540168000065023,0.2239393000054406,0.2239393000054406,4.361857800002326,space,4.353084500005934,None,,,,,,,,,,,,,,,,,,,,,,,,,,,,,,,,01,01,0.25,20,10,10,20,2024-10-29_11h56.57.867,vibrotactile_experiment_test,2024.1.1,None,2024-10-29 11h57.08.894055 +0000,
,,,,,,,,,,,,,,,,,,4.361905600002501,4.362111000009463,,,,,,,,,,,,,,,,,,,,,,,,,,,,,,01,01,0.25,20,10,10,20,2024-10-29_11h56.57.867,vibrotactile_experiment_test,2024.1.1,None,2024-10-29 11h57.08.894055 +0000,
Visual Only,0.0,right,0,0,0,9,4.387780200006091,,,,,,,,,,,,,4.366706000000704,4.387780200006091,4.624081200003275,4.624097400010214,4.638709899998503,6.124002600001404,6.124016900008428,6.138749500008998,6.357440100007807,6.357459799997741,6.372332600003574,6.372332600003574,7.1582769000087865,None,0,,,,,,,,,,,,,,,01,01,0.25,20,10,10,20,2024-10-29_11h56.57.867,vibrotactile_experiment_test,2024.1.1,None,2024-10-29 11h57.08.894055 +0000,
Visual Only,-1.5,left,0,1,1,2,7.175298500005738,,,,,,,,,,,,,7.158862500000396,7.175298500005738,7.423986200010404,7.424001799998223,7.441967000006116,8.907685199999833,8.907704400000512,8.922435200001928,9.157637500000419,9.157656399998814,9.172036900010426,9.172036900010426,9.957894899998792,left,1,9.172036900010426,9.34431320001022,0.1442984999885084,,,,,,,,,,,,01,01,0.25,20,10,10,20,2024-10-29_11h56.57.867,vibrotactile_experiment_test,2024.1.1,None,2024-10-29 11h57.08.894055 +0000,
Visual Only,-0.05,left,0,2,2,6,9.972029299999122,,,,,,,,,,,,,9.958482600006391,9.972029299999122,10.207249600003706,10.207264600001508,10.2221181000059,11.707630700009759,11.707653000004939,11.722503199998755,11.957345600007102,11.95736320001015,11.971945299999788,11.971945299999788,12.757395200009341,right,0,11.971945299999788,12.232092800011742,0.14473709999583662,10.2221181000059,11.722503199998755,12.772097500012023,12.772097500012023,,,,,,,,01,01,0.25,20,10,10,20,2024-10-29_11h56.57.867,vibrotactile_experiment_test,2024.1.1,None,2024-10-29 11h57.08.894055 +0000,
Visual Only,1.5,right,0,3,3,3,12.772097500012023,,,,,,,,,,,,,12.757940600000438,12.772097500012023,13.007433100006892,13.007449400000041,13.023291000004974,14.524228200010839,14.524242200001027,14.538881700005732,14.744041800004197,14.744063300007838,14.755084600008558,14.755084600008558,15.540950100010377,right,1,,14.960905500003719,0.14380869999877177,13.023291000004974,,15.556241300000693,15.556241300000693,,,,,,,,01,01,0.25,20,10,10,20,2024-10-29_11h56.57.867,vibrotactile_experiment_test,2024.1.1,None,2024-10-29 11h57.08.894055 +0000,
Visual Only,0.05,right,0,4,4,7,15.556241300000693,,,,,,,,,,,,,15.541458600011538,15.556241300000693,15.79117430000042,15.79119270000956,15.805789000005461,17.290741800010437,17.290761800002656,17.30585180000344,17.541236600009142,17.541262099999585,17.555638700010604,17.555638700010604,18.34091030000127,left,0,17.555638700010604,17.84048260000418,0.15299899999808986,15.805789000005461,17.30585180000344,18.355451100011123,18.355451100011123,,,,,,,,01,01,0.25,20,10,10,20,2024-10-29_11h56.57.867,vibrotactile_experiment_test,2024.1.1,None,2024-10-29 11h57.08.894055 +0000,
Visual Only,2.0,right,0,5,5,1,18.355451100011123,,,,,,,,,,,,,18.341654700008803,18.355451100011123,18.590651800011983,18.590666900010547,18.605602399999043,20.09231570000702,20.092336700006854,20.108665300009307,20.340745300010894,20.34076790000836,20.35531090000586,20.35531090000586,21.143294200010132,right,1,,20.55284630000824,0.1272809999936726,18.605602399999043,,,,,,,,,,,01,01,0.25,20,10,10,20,2024-10-29_11h56.57.867,vibrotactile_experiment_test,2024.1.1,None,2024-10-29 11h57.08.894055 +0000,
Visual Only,0.0,left,0,6,6,8,21.15564730000915,,,,,,,,,,,,,21.143752000003587,21.15564730000915,21.390683200006606,21.39069830000517,21.405299400008516,22.890928500011796,22.89094950001163,22.90554790000897,23.127731800006586,23.127752700005658,23.1386169000034,23.1386169000034,23.924361299999873,left,1,,23.49662360000366,0.14385259999835398,21.405299400008516,,23.938874400002533,23.938874400002533,,,,,,,,01,01,0.25,20,10,10,20,2024-10-29_11h56.57.867,vibrotactile_experiment_test,2024.1.1,None,2024-10-29 11h57.08.894055 +0000,
Visual Only,-1.0,left,0,7,7,4,23.938874400002533,,,,,,,,,,,,,23.924903000006452,23.938874400002533,24.173876400003792,24.173891600003117,24.191433400003007,25.67760160000762,25.677621499999077,25.6891966000112,25.909900099999504,25.90992940000433,25.922437900007935,25.922437900007935,26.70821490000526,left,1,,26.112136299998383,0.1361627000005683,24.191433400003007,,26.7220498000097,26.7220498000097,,,,,,,,01,01,0.25,20,10,10,20,2024-10-29_11h56.57.867,vibrotactile_experiment_test,2024.1.1,None,2024-10-29 11h57.08.894055 +0000,
Visual Only,1.0,right,0,8,8,5,26.7220498000097,,,,,,,,,,,,,26.708731100006844,26.7220498000097,26.958339900011197,26.958364800011623,26.973749299999326,28.47375180000381,28.473766800001613,28.4892886000016,28.70759299999918,28.707620100001805,28.72204110000166,28.72204110000166,29.507940900002723,right,1,,29.104961900011403,0.1111104999872623,26.973749299999326,,,,,,,,,,,01,01,0.25,20,10,10,20,2024-10-29_11h56.57.867,vibrotactile_experiment_test,2024.1.1,None,2024-10-29 11h57.08.894055 +0000,
Visual Only,-2.0,left,0,9,9,0,29.525065599998925,,,,,,,,,,,,,29.50848850001057,29.525065599998925,29.774173199999495,29.774187700008042,29.788687200009008,31.273935000004712,31.273958700010553,31.28900770000473,31.507460000007995,31.50748630000453,31.521974100003717,31.521974100003717,32.30766590000712,left,1,,31.760045300005004,0.16076559999783058,,,32.32261680001102,32.32261680001102,,,,,,,,01,01,0.25,20,10,10,20,2024-10-29_11h56.57.867,vibrotactile_experiment_test,2024.1.1,None,2024-10-29 11h57.08.894055 +0000,
Visual Only,0.0,right,1,0,10,9,32.32261680001102,,,,,,,,,,,,,32.308212400006596,32.32261680001102,32.55816820000473,32.55818510000245,32.57481630000984,34.05917930000578,34.05919569999969,34.07410040000104,34.30777970000054,34.307808400000795,34.322679500008235,34.322679500008235,35.09294899999804,right,1,,34.536261700006435,0.168621599994367,32.57481630000984,,,,,,,,,,,01,01,0.25,20,10,10,20,2024-10-29_11h56.57.867,vibrotactile_experiment_test,2024.1.1,None,2024-10-29 11h57.08.894055 +0000,
Visual Only,1.5,right,1,1,11,3,35.108278400002746,,,,,,,,,,,,,35.09354180000082,35.108278400002746,35.35725380000076,35.357275500005926,35.371687899998506,36.85755530001188,36.85757100000046,36.87203490000684,37.09399770000891,37.09404640000139,37.10883680000552,37.10883680000552,37.8906166000088,right,1,,37.3601561000105,0.1519521000009263,,,,,,,,,,,,01,01,0.25,20,10,10,20,2024-10-29_11h56.57.867,vibrotactile_experiment_test,2024.1.1,None,2024-10-29 11h57.08.894055 +0000,
Visual Only,2.0,right,1,2,12,1,37.90560150000965,,,,,,,,,,,,,37.89117370000167,37.90560150000965,38.14135560000432,38.14137860000483,38.15874320000876,39.65685900000972,39.65687489999982,39.67234060000919,39.89070420000644,39.890733400010504,39.90836180000042,39.90836180000042,40.69062560000748,right,1,,40.16824080000515,0.2000592999975197,38.15874320000876,,,,,,,,,,,01,01,0.25,20,10,10,20,2024-10-29_11h56.57.867,vibrotactile_experiment_test,2024.1.1,None,2024-10-29 11h57.08.894055 +0000,
Visual Only,0.0,left,1,3,13,8,40.705538800000795,,,,,,,,,,,,,40.69115130000864,40.705538800000795,40.94100310000067,40.94102389999898,40.955394300006446,42.44139570000698,42.44141730001138,42.459233800007496,42.69233510000049,42.6923633999977,42.708792800011,42.708792800011,43.490882600002806,left,1,,42.912670000005164,0.1836059000052046,40.955394300006446,,,,,,,,,,,01,01,0.25,20,10,10,20,2024-10-29_11h56.57.867,vibrotactile_experiment_test,2024.1.1,None,2024-10-29 11h57.08.894055 +0000,
Visual Only,-2.0,left,1,4,14,0,43.50537460000487,,,,,,,,,,,,,43.49143310000363,43.50537460000487,43.743528700011666,43.74354480000329,43.75535550000495,45.24356480001006,45.243582800001604,45.25568729999941,45.491765400001896,45.49181459999818,45.506185800011735,45.506185800011735,46.291810300012,left,1,45.506185800011735,45.77663040001062,0.15992249999544583,,,46.30549360001169,46.30549360001169,,,,,,,,01,01,0.25,20,10,10,20,2024-10-29_11h56.57.867,vibrotactile_experiment_test,2024.1.1,None,2024-10-29 11h57.08.894055 +0000,
Visual Only,0.05,right,1,5,15,7,46.30549360001169,,,,,,,,,,,,,46.292297100008,46.30549360001169,46.541325700003654,46.54134120000526,46.55647070000123,48.042049199997564,48.04206830001203,48.05692380000255,48.29112540000642,48.29115260000981,48.30537250000634,48.30537250000634,49.091643899999326,left,0,,48.553228400007356,0.15975299999990966,46.55647070000123,48.05692380000255,49.10679320000054,49.10679320000054,,,,,,,,01,01,0.25,20,10,10,20,2024-10-29_11h56.57.867,vibrotactile_experiment_test,2024.1.1,None,2024-10-29 11h57.08.894055 +0000,
Visual Only,-1.5,left,1,6,16,2,49.10679320000054,,,,,,,,,,,,,49.09242400000221,49.10679320000054,49.357333200008725,49.35735469999781,49.37199379999947,50.85703930001182,50.857054699998116,50.87246210000012,51.092192100011744,51.092251599999145,51.1084247000108,51.1084247000108,51.890417700007674,right,0,,51.28092960000504,0.17527429999609012,,,,,,,,,,,,01,01,0.25,20,10,10,20,2024-10-29_11h56.57.867,vibrotactile_experiment_test,2024.1.1,None,2024-10-29 11h57.08.894055 +0000,
Visual Only,-1.0,left,1,7,17,4,51.905685500008985,,,,,,,,,,,,,51.89096440000867,51.905685500008985,52.143704400004935,52.143722599998,52.15699570000288,53.64123550000659,53.64128960001108,53.65556860000652,53.87705460000143,53.87707400000363,53.88917720000609,53.88917720000609,54.67405800000415,left,1,,54.096753700010595,0.17588949999480974,,,54.68941230000928,54.68941230000928,,,,,,,,01,01,0.25,20,10,10,20,2024-10-29_11h56.57.867,vibrotactile_experiment_test,2024.1.1,None,2024-10-29 11h57.08.894055 +0000,
Visual Only,1.0,right,1,8,18,5,54.68941230000928,,,,,,,,,,,,,54.67461690001073,54.68941230000928,54.924775699997554,54.92479750000348,54.93895770001109,56.424597100005485,56.42461230000481,56.43923160000122,56.67462610000803,56.67464769999788,56.6889988000039,56.6889988000039,57.47478290001163,right,1,,56.87252650001028,0.12897059999522753,54.93895770001109,,57.48904450000555,57.48904450000555,,,,,,,,01,01,0.25,20,10,10,20,2024-10-29_11h56.57.867,vibrotactile_experiment_test,2024.1.1,None,2024-10-29 11h57.08.894055 +0000,
Visual Only,-0.05,left,1,9,19,6,57.48904450000555,,,,,,,,,,,,,57.475266300010844,57.48904450000555,57.72761940000055,57.727635400005965,57.739106599998195,59.22447450000618,59.22449600000982,59.239041200009524,59.47405550000258,59.474076700003934,59.488681200004066,59.488681200004066,60.27517649999936,left,1,59.488681200004066,59.90504840000358,0.15979790000710636,,59.239041200009524,,,,,,,,,,01,01,0.25,20,10,10,20,2024-10-29_11h56.57.867,vibrotactile_experiment_test,2024.1.1,None,2024-10-29 11h57.08.894055 +0000,
Visual Only,1.5,right,2,0,20,3,60.2915653000091,,,,,,,,,,,,,60.27597620000597,60.2915653000091,60.5401511000091,60.54016709999996,60.555263000002014,62.04102280001098,62.0410480999999,62.05667020000692,62.274072400003206,62.27412840000761,62.28861390000384,62.28861390000384,63.07472109999799,right,1,,62.46597030000703,0.15008949999173637,,,,,,,,,,,,01,01,0.25,20,10,10,20,2024-10-29_11h56.57.867,vibrotactile_experiment_test,2024.1.1,None,2024-10-29 11h57.08.894055 +0000,
Visual Only,-0.05,left,2,1,21,6,63.09200740000233,,,,,,,,,,,,,63.075601500007906,63.09200740000233,63.340859600008116,63.34087549999822,63.35539830000198,64.82445480000752,64.82447110000066,64.83891869999934,65.06061410000257,65.06066120001196,65.074732699999,65.074732699999,65.85753010000917,left,1,,65.27287470000738,0.1436329999996815,,,,,,,,,,,,01,01,0.25,20,10,10,20,2024-10-29_11h56.57.867,vibrotactile_experiment_test,2024.1.1,None,2024-10-29 11h57.08.894055 +0000,
Visual Only,0.0,right,2,2,22,9,65.87724919999891,,,,,,,,,,,,,65.85832800000207,65.87724919999891,66.10815720001119,66.10818300000392,66.12217630000669,67.60984050000843,67.60985690000234,67.62192230000801,67.85767460000352,67.85769560000335,67.87225820000458,67.87225820000458,68.6579206000024,right,1,67.87225820000458,68.07286230000318,0.11950450000585988,,,68.67218850000063,68.67218850000063,,,,,,,,01,01,0.25,20,10,10,20,2024-10-29_11h56.57.867,vibrotactile_experiment_test,2024.1.1,None,2024-10-29 11h57.08.894055 +0000,
Visual Only,-1.0,left,2,3,23,4,68.67218850000063,,,,,,,,,,,,,68.65845940000145,68.67218850000063,68.907031499999,68.90705020001042,68.92219779999868,70.40735560000758,70.40737369999988,70.42218270000012,70.6582505999977,70.65827100000752,70.67195360000187,70.67195360000187,71.44428400001198,left,1,70.67195360000187,70.88874239999859,0.15993420001177583,68.92219779999868,70.42218270000012,,,,,,,,,,01,01,0.25,20,10,10,20,2024-10-29_11h56.57.867,vibrotactile_experiment_test,2024.1.1,None,2024-10-29 11h57.08.894055 +0000,
Visual Only,0.0,left,2,4,24,8,71.45549810001103,,,,,,,,,,,,,71.44475819999934,71.45549810001103,71.69091420000768,71.69093430000066,71.7051216000109,73.19073320001189,73.19074790000741,73.20562360000622,73.44074350000301,73.4407618999976,73.45516930001031,73.45516930001031,74.24077280001075,right,0,73.45516930001031,73.78500450000865,0.13577619999705348,71.7051216000109,73.20562360000622,74.25545820000116,74.25545820000116,,,,,,,,01,01,0.25,20,10,10,20,2024-10-29_11h56.57.867,vibrotactile_experiment_test,2024.1.1,None,2024-10-29 11h57.08.894055 +0000,
Visual Only,-2.0,left,2,5,25,0,74.25545820000116,,,,,,,,,,,,,74.24131630000193,74.25545820000116,74.4908574000001,74.49087490000238,74.50530780000554,75.99028890000773,75.99030289999791,76.0053334000113,76.24123520001012,76.24125910000294,76.25566720000643,76.25566720000643,77.0272330000007,left,1,76.25566720000643,76.4729221000016,0.16726329999801237,74.50530780000554,76.0053334000113,,,,,,,,,,01,01,0.25,20,10,10,20,2024-10-29_11h56.57.867,vibrotactile_experiment_test,2024.1.1,None,2024-10-29 11h57.08.894055 +0000,
Visual Only,-1.5,left,2,6,26,2,77.04079330000968,,,,,,,,,,,,,77.02769230000558,77.04079330000968,77.29028440000548,77.29030030001013,77.30575320000935,78.79316359999939,78.79317869999795,78.8059462000092,79.02511010000308,79.02513760000875,79.04068560000451,79.04068560000451,79.82482550000714,left,1,,79.2809896000108,0.13501639998867176,,,,,,,,,,,,01,01,0.25,20,10,10,20,2024-10-29_11h56.57.867,vibrotactile_experiment_test,2024.1.1,None,2024-10-29 11h57.08.894055 +0000,
Visual Only,2.0,right,2,7,27,1,79.8388963000034,,,,,,,,,,,,,79.82535730001109,79.8388963000034,80.07540900001186,80.07543380001152,80.0896963999985,81.59036529999867,81.59038110000256,81.60556570001063,81.82694540001103,81.82696230000874,81.83934010000667,81.83934010000667,82.62338060000911,left,0,,81.97666140001093,0.135354300000472,80.0896963999985,,,,,,,,,,,01,01,0.25,20,10,10,20,2024-10-29_11h56.57.867,vibrotactile_experiment_test,2024.1.1,None,2024-10-29 11h57.08.894055 +0000,
Visual Only,1.0,right,2,8,28,5,82.63854759999958,,,,,,,,,,,,,82.62391580000985,82.63854759999958,82.87402930000098,82.87405100000615,82.88852540000516,84.37391370000842,84.37392920001002,84.38952460000291,84.60887599999842,84.60890970000764,84.62540280001122,84.62540280001122,85.40852680000535,right,1,,84.81638970000495,0.07182599999941885,,,,,,,,,,,,01,01,0.25,20,10,10,20,2024-10-29_11h56.57.867,vibrotactile_experiment_test,2024.1.1,None,2024-10-29 11h57.08.894055 +0000,
Visual Only,0.05,right,2,9,29,7,85.42461300001014,,,,,,,,,,,,,85.40904440000304,85.42461300001014,85.65931390000333,85.65933999999834,85.67437960000825,87.17534650000744,87.17537070000253,87.18873330000497,87.40774300000339,87.40776790000382,87.4219560000056,87.4219560000056,88.20727050000278,left,0,,87.64859409999917,0.14370440000493545,,,88.22222840000177,88.22222840000177,,,,,,,,01,01,0.25,20,10,10,20,2024-10-29_11h56.57.867,vibrotactile_experiment_test,2024.1.1,None,2024-10-29 11h57.08.894055 +0000,
Visual Only,0.0,left,3,0,30,8,88.22222840000177,,,,,,,,,,,,,88.20780640000885,88.22222840000177,88.45731820000219,88.45733580000524,88.47199230000842,89.9571169999981,89.95713490000344,89.97210700000869,90.20736070000567,90.20737920000101,90.22193340001104,90.22193340001104,90.99392900000385,right,0,90.22193340001104,90.45621180000308,0.12054489999718498,88.47199230000842,89.97210700000869,,,,,,,,,,01,01,0.25,20,10,10,20,2024-10-29_11h56.57.867,vibrotactile_experiment_test,2024.1.1,None,2024-10-29 11h57.08.894055 +0000,
Visual Only,1.0,right,3,1,31,5,91.00543400000606,,,,,,,,,,,,,90.99439160000475,91.00543400000606,91.24053940000886,91.24055680001038,91.25517230000696,92.74049520000699,92.74050920001173,92.75550410000142,92.99150870001176,92.9915284000017,93.00557829999889,93.00557829999889,93.79076410000562,right,1,93.00557829999889,93.2245694000012,0.1521082999970531,91.25517230000696,92.75550410000142,93.80818580000778,93.80818580000778,,,,,,,,01,01,0.25,20,10,10,20,2024-10-29_11h56.57.867,vibrotactile_experiment_test,2024.1.1,None,2024-10-29 11h57.08.894055 +0000,
Visual Only,1.5,right,3,2,32,3,93.80818580000778,,,,,,,,,,,,,93.7913028000039,93.80818580000778,94.04238579999947,94.0424337000004,94.05746100000397,95.55714330000046,95.5571595000074,95.5749802000064,95.79108039999846,95.79110480000963,95.80634940000891,95.80634940000891,96.57703310000943,right,1,,95.96095130000322,0.15993049999815412,,,,,,,,,,,,01,01,0.25,20,10,10,20,2024-10-29_11h56.57.867,vibrotactile_experiment_test,2024.1.1,None,2024-10-29 11h57.08.894055 +0000,
Visual Only,0.0,right,3,3,33,9,96.58884550000948,,,,,,,,,,,,,96.57748829999764,96.58884550000948,96.82448190001014,96.82449880000786,96.84055920000537,98.34066980000352,98.34068510000361,98.35568069999863,98.57444240000041,98.5744709999999,98.58897300000535,98.58897300000535,99.37396180001087,right,1,,98.95355070001096,0.1274181999906432,96.84055920000537,,99.38906680000946,99.38906680000946,,,,,,,,01,01,0.25,20,10,10,20,2024-10-29_11h56.57.867,vibrotactile_experiment_test,2024.1.1,None,2024-10-29 11h57.08.894055 +0000,
Visual Only,0.05,right,3,4,34,7,99.38906680000946,,,,,,,,,,,,,99.37447730000713,99.38906680000946,99.62441309999849,99.62443010001152,99.63863539999875,101.12610400000995,101.1261291000119,101.1394861000008,101.37434930000745,101.37436940000043,101.3885803000012,101.3885803000012,102.17441630001122,right,1,101.3885803000012,101.6645783999993,0.1516503000020748,99.63863539999875,,,,,,,,,,,01,01,0.25,20,10,10,20,2024-10-29_11h56.57.867,vibrotactile_experiment_test,2024.1.1,None,2024-10-29 11h57.08.894055 +0000,
Visual Only,-1.0,left,3,5,35,4,102.18866739999794,,,,,,,,,,,,,102.17492210000637,102.18866739999794,102.42467620001116,102.42469749999873,102.4386128000042,103.92412870000408,103.92414680001093,103.93872510000074,104.17407420001109,104.17409490000864,104.1887693000026,104.1887693000026,104.9741420000064,left,1,104.1887693000026,104.35281890000624,0.15137150000373367,,103.93872510000074,104.98868530000618,104.98868530000618,,,,,,,,01,01,0.25,20,10,10,20,2024-10-29_11h56.57.867,vibrotactile_experiment_test,2024.1.1,None,2024-10-29 11h57.08.894055 +0000,
Visual Only,2.0,right,3,6,36,1,104.98868530000618,,,,,,,,,,,,,104.97470780000731,104.98868530000618,105.22405220000655,105.22406940000656,105.23909730000014,106.72388830001,106.7239072000084,106.73847999999998,106.96065520000411,106.96067559999938,106.97283040000184,106.97283040000184,107.75717670000449,right,1,,107.104660099998,0.15138030001253355,105.23909730000014,106.73847999999998,107.77288560000306,107.77288560000306,,,,,,,,01,01,0.25,20,10,10,20,2024-10-29_11h56.57.867,vibrotactile_experiment_test,2024.1.1,None,2024-10-29 11h57.08.894055 +0000,
Visual Only,-2.0,left,3,7,37,0,107.77288560000306,,,,,,,,,,,,,107.75775440000871,107.77288560000306,108.0078491000022,108.00786620000144,108.02204780001193,109.50767269999778,109.50769060000312,109.52230009999766,109.75734860000375,109.75737130000198,109.77462060000107,109.77462060000107,110.55735889999778,left,1,109.77462060000107,109.94447990000481,0.14373300000443123,108.02204780001193,109.52230009999766,,,,,,,,,,01,01,0.25,20,10,10,20,2024-10-29_11h56.57.867,vibrotactile_experiment_test,2024.1.1,None,2024-10-29 11h57.08.894055 +0000,
Visual Only,-0.05,left,3,8,38,6,110.57185940000636,,,,,,,,,,,,,110.55788030000986,110.57185940000636,110.81095949999872,110.81097430000955,110.82216330000665,112.30789010001172,112.30791040000622,112.32287770000403,112.55761730000086,112.55764210000052,112.57382390000566,112.57382390000566,113.35800230001041,left,1,112.57382390000566,112.95294630000717,0.1351511999964714,,112.32287770000403,,,,,,,,,,01,01,0.25,20,10,10,20,2024-10-29_11h56.57.867,vibrotactile_experiment_test,2024.1.1,None,2024-10-29 11h57.08.894055 +0000,
Visual Only,-1.5,left,3,9,39,2,113.37326300000132,,,,,,,,,,,,,113.35854529999779,113.37326300000132,113.60762120000436,113.60763900000893,113.62466620000487,115.10931310000888,115.1093292000005,115.12521920001018,115.35739040000772,115.35741209999833,115.37235040000814,115.37235040000814,116.14360170000873,left,1,,115.56021580001106,0.14400369999930263,113.62466620000487,,,,,,,,,,,01,01,0.25,20,10,10,20,2024-10-29_11h56.57.867,vibrotactile_experiment_test,2024.1.1,None,2024-10-29 11h57.08.894055 +0000,
Visual Only,2.0,right,4,0,40,1,116.1570725000056,,,,,,,,,,,,,116.14409230000456,116.1570725000056,116.40693969999847,116.40695499999856,116.42252950000693,117.90693209999881,117.90694660000736,117.92191299999831,118.1413392000104,118.14136770000914,118.15562350000255,118.15562350000255,118.94308029999956,right,1,,118.32109720000881,0.13496399999712594,,,,,,,,,,,,01,01,0.25,20,10,10,20,2024-10-29_11h56.57.867,vibrotactile_experiment_test,2024.1.1,None,2024-10-29 11h57.08.894055 +0000,
Visual Only,-1.0,left,4,1,41,4,118.95514370000456,,,,,,,,,,,,,118.9435419000074,118.95514370000456,119.1905284000095,119.19054530000722,119.20524180000939,120.69065679999767,120.69067720000749,120.70543300001009,120.9411567000061,120.94118069999968,120.9555684000079,120.9555684000079,121.74401200001012,left,1,120.9555684000079,121.13659150000603,0.11949100000492763,119.20524180000939,120.70543300001009,,,,,,,,,,01,01,0.25,20,10,10,20,2024-10-29_11h56.57.867,vibrotactile_experiment_test,2024.1.1,None,2024-10-29 11h57.08.894055 +0000,
Visual Only,0.0,right,4,2,42,9,121.7556859000033,,,,,,,,,,,,,121.74447960000543,121.7556859000033,121.99058779999905,121.99060129999998,122.005204400004,123.4905155000015,123.49053300000378,123.50532630000089,123.72734630000195,123.72736520000035,123.7386101000011,123.7386101000011,124.52428880000662,right,1,,123.9289804,0.11159620000398718,122.005204400004,123.50532630000089,124.5387836000009,124.5387836000009,,,,,,,,01,01,0.25,20,10,10,20,2024-10-29_11h56.57.867,vibrotactile_experiment_test,2024.1.1,None,2024-10-29 11h57.08.894055 +0000,
Visual Only,-0.05,left,4,3,43,6,124.5387836000009,,,,,,,,,,,,,124.5248239000066,124.5387836000009,124.77820380000048,124.77821950000362,124.78907640000398,126.27392220000911,126.27393880000454,126.28885080000327,126.52416110000922,126.52418860000034,126.53872290000436,126.53872290000436,127.32470940001076,left,1,126.53872290000436,126.70428089999768,0.11262370001350064,,126.28885080000327,,,,,,,,,,01,01,0.25,20,10,10,20,2024-10-29_11h56.57.867,vibrotactile_experiment_test,2024.1.1,None,2024-10-29 11h57.08.894055 +0000,
Visual Only,0.0,left,4,4,44,8,127.33894159999909,,,,,,,,,,,,,127.32521619999898,127.33894159999909,127.57356699999946,127.57358880000538,127.58838120001019,129.07561700000952,129.07564249999996,129.09466080000857,129.32431520000682,129.32433630000742,129.33879320000415,129.33879320000415,130.11048930000106,right,0,,129.5682162000012,0.1762563000083901,127.58838120001019,,,,,,,,,,,01,01,0.25,20,10,10,20,2024-10-29_11h56.57.867,vibrotactile_experiment_test,2024.1.1,None,2024-10-29 11h57.08.894055 +0000,
Visual Only,1.0,right,4,5,45,5,130.125540500012,,,,,,,,,,,,,130.1111976000102,130.125540500012,130.3734589000087,130.37347410000802,130.38900700000522,131.87395990001096,131.87398210000538,131.88862959999824,132.1105166000052,132.11054900000454,132.1279981000116,132.1279981000116,132.9106555000035,left,0,,132.32068679999793,0.13650210000923835,,,,,,,,,,,,01,01,0.25,20,10,10,20,2024-10-29_11h56.57.867,vibrotactile_experiment_test,2024.1.1,None,2024-10-29 11h57.08.894055 +0000,
Visual Only,-1.5,left,4,6,46,2,132.92271009999968,,,,,,,,,,,,,132.91109999999753,132.92271009999968,133.1580432000046,133.15806220000377,133.17233970000234,134.65751699999964,134.65753640000185,134.67252900000312,134.90745730001072,134.9074796000059,134.92230160000327,134.92230160000327,135.7099453999981,left,1,134.92230160000327,135.1682373000076,0.12010349999764003,133.17233970000234,134.67252900000312,,,,,,,,,,01,01,0.25,20,10,10,20,2024-10-29_11h56.57.867,vibrotactile_experiment_test,2024.1.1,None,2024-10-29 11h57.08.894055 +0000,
Visual Only,1.5,right,4,7,47,3,135.72174140000425,,,,,,,,,,,,,135.7104670999979,135.72174140000425,135.95719929999905,135.95721700000286,135.9719371000101,137.4574244000105,137.45744440000271,137.47288330001174,137.7074549000099,137.7074738000083,137.7222790000087,137.7222790000087,138.50789050001185,right,1,137.7222790000087,138.0411729000043,0.12768239999422804,135.9719371000101,137.47288330001174,,,,,,,,,,01,01,0.25,20,10,10,20,2024-10-29_11h56.57.867,vibrotactile_experiment_test,2024.1.1,None,2024-10-29 11h57.08.894055 +0000,
Visual Only,0.05,right,4,8,48,7,138.52309400000377,,,,,,,,,,,,,138.50841410001158,138.52309400000377,138.75767140000244,138.75769240000227,138.77180490001047,140.25774190000084,140.25775689999864,140.27297780000663,140.50763560000632,140.5076537999994,140.52248379999946,140.52248379999946,141.30787760000385,left,0,,140.94437800000014,0.15217140001186635,138.77180490001047,,,,,,,,,,,01,01,0.25,20,10,10,20,2024-10-29_11h56.57.867,vibrotactile_experiment_test,2024.1.1,None,2024-10-29 11h57.08.894055 +0000,
Visual Only,-2.0,left,4,9,49,0,141.32260320000933,,,,,,,,,,,,,141.30839510000078,141.32260320000933,141.55796060001012,141.55798930001038,141.5728298000031,143.0599596000102,143.0599993000069,143.07408390000637,143.3077071000007,143.30773410000256,143.32354340000893,143.32354340000893,144.09524290000263,left,1,,143.64835940000194,0.1284866000059992,141.5728298000031,,,,,,,,,,,01,01,0.25,20,10,10,20,2024-10-29_11h56.57.867,vibrotactile_experiment_test,2024.1.1,None,2024-10-29 11h57.08.894055 +0000,
Visual Only,2.0,right,5,0,50,1,144.10632479999913,,,,,,,,,,,,,144.09581740001158,144.10632479999913,144.34246440000425,144.3424815000035,144.35557310000877,145.8431591000117,145.84317750000628,145.8560218000057,146.09528190000856,146.09530580000137,146.1066686999984,146.1066686999984,146.89190690001124,right,1,146.1066686999984,146.28098870000395,0.13520839999546297,144.35557310000877,145.8560218000057,146.9054957000044,146.9054957000044,,,,,,,,01,01,0.25,20,10,10,20,2024-10-29_11h56.57.867,vibrotactile_experiment_test,2024.1.1,None,2024-10-29 11h57.08.894055 +0000,
Visual Only,1.0,right,5,1,51,5,146.9054957000044,,,,,,,,,,,,,146.89244280000275,146.9054957000044,147.14246990000538,147.14250290000928,147.15590370001155,148.6410154000041,148.64103030000115,148.65621890001057,148.89180769999803,148.8918379000097,148.90852100000484,148.90852100000484,149.6935894000053,right,1,148.90852100000484,149.10426870000083,0.16065330000128597,147.15590370001155,148.65621890001057,,,,,,,,,,01,01,0.25,20,10,10,20,2024-10-29_11h56.57.867,vibrotactile_experiment_test,2024.1.1,None,2024-10-29 11h57.08.894055 +0000,
Visual Only,-1.5,left,5,2,52,2,149.70534359999874,,,,,,,,,,,,,149.69406290000188,149.70534359999874,149.94088320000446,149.9409008000075,149.9557674000098,151.4411919999984,151.44121230000746,151.45636090000335,151.69149240000115,151.69151070000953,151.7054327000078,151.7054327000078,152.49115810000512,left,1,151.7054327000078,151.92060570001195,0.16019439999945462,149.9557674000098,151.45636090000335,152.50537330000952,152.50537330000952,,,,,,,,01,01,0.25,20,10,10,20,2024-10-29_11h56.57.867,vibrotactile_experiment_test,2024.1.1,None,2024-10-29 11h57.08.894055 +0000,
Visual Only,0.0,left,5,3,53,8,152.50537330000952,,,,,,,,,,,,,152.49174810000113,152.50537330000952,152.74050260000513,152.7405226999981,152.75530280001112,154.2408870000072,154.24090620000788,154.25526540000283,154.49232190000475,154.49234850000357,154.50546260000556,154.50546260000556,155.29076480001095,right,0,154.50546260000556,154.7608908000111,0.14413539999804925,152.75530280001112,154.25526540000283,155.3059532000043,155.3059532000043,,,,,,,,01,01,0.25,20,10,10,20,2024-10-29_11h56.57.867,vibrotactile_experiment_test,2024.1.1,None,2024-10-29 11h57.08.894055 +0000,
Visual Only,1.5,right,5,4,54,3,155.3059532000043,,,,,,,,,,,,,155.29131929999858,155.3059532000043,155.5412983999995,155.5413183000055,155.5575322000077,157.04280870000366,157.0428366999986,157.06065970000054,157.29128109999874,157.29130789999908,157.30565419999766,157.30565419999766,158.07704950000334,right,1,,157.5608806000091,0.13582060000044294,155.5575322000077,,,,,,,,,,,01,01,0.25,20,10,10,20,2024-10-29_11h56.57.867,vibrotactile_experiment_test,2024.1.1,None,2024-10-29 11h57.08.894055 +0000,
Visual Only,0.05,right,5,5,55,7,158.09521900000982,,,,,,,,,,,,,158.077738100008,158.09521900000982,158.34174570000323,158.3417618000094,158.35588160000043,159.84061860000656,159.84063510000124,159.85612730000867,160.0767729000072,160.07679669999925,160.0930631000083,160.0930631000083,160.8749330999999,left,0,,160.54418300000543,0.16081699999631383,,,,,,,,,,,,01,01,0.25,20,10,10,20,2024-10-29_11h56.57.867,vibrotactile_experiment_test,2024.1.1,None,2024-10-29 11h57.08.894055 +0000,
Visual Only,-2.0,left,5,6,56,0,160.89092479999817,,,,,,,,,,,,,160.87548529999913,160.89092479999817,161.1410276000097,161.14104270000826,161.15624260000186,162.6407029000111,162.64071839999815,162.65601140000217,162.87424750000355,162.8742712000094,162.88864889999968,162.88864889999968,163.6743143000058,left,1,,163.16026030000648,0.1282677999988664,,,163.68886470000143,163.68886470000143,,,,,,,,01,01,0.25,20,10,10,20,2024-10-29_11h56.57.867,vibrotactile_experiment_test,2024.1.1,None,2024-10-29 11h57.08.894055 +0000,
Visual Only,-1.0,left,5,7,57,4,163.68886470000143,,,,,,,,,,,,,163.67485470000247,163.68886470000143,163.92486260000442,163.924880999999,163.93892430000415,165.42405130001134,165.42407050001202,165.43927120001172,165.67442730000766,165.67447750001156,165.68975540000247,165.68975540000247,166.47483010000724,left,1,165.68975540000247,165.88022560000536,0.16104039999481756,,165.43927120001172,,,,,,,,,,01,01,0.25,20,10,10,20,2024-10-29_11h56.57.867,vibrotactile_experiment_test,2024.1.1,None,2024-10-29 11h57.08.894055 +0000,
Visual Only,0.0,right,5,8,58,9,166.48894989999826,,,,,,,,,,,,,166.47534430000815,166.48894989999826,166.72402650000004,166.72404790000292,166.73839399999997,168.2249509000103,168.22496830001182,168.24009790000855,168.47396980000485,168.47398970001086,168.49290440000186,168.49290440000186,169.27417720000085,right,1,,168.76009989999875,0.12068360000557732,166.73839399999997,168.24009790000855,,,,,,,,,,01,01,0.25,20,10,10,20,2024-10-29_11h56.57.867,vibrotactile_experiment_test,2024.1.1,None,2024-10-29 11h57.08.894055 +0000,
Visual Only,-0.05,left,5,9,59,6,169.28897110000253,,,,,,,,,,,,,169.27472529999795,169.28897110000253,169.5243696000107,169.5243857000023,169.53867320000427,171.0243585999997,171.02437620000273,171.04140390000248,171.27499160000298,171.27501420000044,171.28980080000474,171.28980080000474,172.0605601999996,left,1,,171.44826830000966,0.14416729999356903,,171.04140390000248,,,,,,,,,,01,01,0.25,20,10,10,20,2024-10-29_11h56.57.867,vibrotactile_experiment_test,2024.1.1,None,2024-10-29 11h57.08.894055 +0000,
Visual Only,1.0,right,6,0,60,5,172.0740960000112,,,,,,,,,,,,,172.0610694000061,172.0740960000112,172.3263653000031,172.32641420001164,172.34058509999886,173.8251689000026,173.8251842000027,173.8391158000013,174.0612484000012,174.06127160000324,174.07442900000024,174.07442900000024,174.85906470000918,right,1,,174.12057569999888,0.20046250001178123,,,,,,,,,,,,01,01,0.25,20,10,10,20,2024-10-29_11h56.57.867,vibrotactile_experiment_test,2024.1.1,None,2024-10-29 11h57.08.894055 +0000,
Visual Only,-2.0,left,6,1,61,0,174.8720491999993,,,,,,,,,,,,,174.85955040001136,174.8720491999993,175.1094740999979,175.10950160000357,175.12264210000285,176.60726070000965,176.6072822999995,176.62234890001127,176.8585796999978,176.85861960001057,176.87283820001176,176.87283820001176,177.65754980000202,left,1,176.87283820001176,177.05703589999757,0.13553590000083204,,176.62234890001127,177.67235320000327,177.67235320000327,,,,,,,,01,01,0.25,20,10,10,20,2024-10-29_11h56.57.867,vibrotactile_experiment_test,2024.1.1,None,2024-10-29 11h57.08.894055 +0000,
Visual Only,0.05,right,6,2,62,7,177.67235320000327,,,,,,,,,,,,,177.65808750000724,177.67235320000327,177.90799300000072,177.90801670000656,177.92260000000533,179.40732440000284,179.40734450001037,179.42292340000859,179.65789830000722,179.65791760000866,179.67253820000042,179.67253820000042,180.44465140000102,right,1,179.67253820000042,180.0161233000108,0.1281369999924209,177.92260000000533,179.42292340000859,,,,,,,,,,01,01,0.25,20,10,10,20,2024-10-29_11h56.57.867,vibrotactile_experiment_test,2024.1.1,None,2024-10-29 11h57.08.894055 +0000,
Visual Only,0.0,right,6,3,63,9,180.45541439999943,,,,,,,,,,,,,180.44515939999837,180.45541439999943,180.6916351000109,180.69165030001022,180.70853480001097,182.20782870000403,182.2078443000064,182.22190550000232,182.44172570000228,182.44178340000508,182.455878400011,182.455878400011,183.24052630001097,left,0,,182.50501160000567,0.15121240000007674,180.70853480001097,,183.2565089999989,183.2565089999989,,,,,,,,01,01,0.25,20,10,10,20,2024-10-29_11h56.57.867,vibrotactile_experiment_test,2024.1.1,None,2024-10-29 11h57.08.894055 +0000,
Visual Only,0.0,left,6,4,64,8,183.2565089999989,,,,,,,,,,,,,183.2410588000057,183.2565089999989,183.4911332000047,183.49117170000682,183.50678760001028,184.99150550000195,184.99152690000483,185.00586220000696,185.24115810000512,185.24117439999827,185.25598510001146,185.25598510001146,186.02689710000413,right,0,,185.4570340000064,0.1679061000031652,,,,,,,,,,,,01,01,0.25,20,10,10,20,2024-10-29_11h56.57.867,vibrotactile_experiment_test,2024.1.1,None,2024-10-29 11h57.08.894055 +0000,
Visual Only,2.0,right,6,5,65,1,186.04202690000238,,,,,,,,,,,,,186.02757990000828,186.04202690000238,186.29048540000804,186.29050160000043,186.3060048000043,187.7904772000038,187.79049230000237,187.80849110000418,188.0251672000013,188.0251974999992,188.04156520000834,188.04156520000834,188.82509730001038,right,1,,188.36023440001009,0.1446270999877015,,,,,,,,,,,,01,01,0.25,20,10,10,20,2024-10-29_11h56.57.867,vibrotactile_experiment_test,2024.1.1,None,2024-10-29 11h57.08.894055 +0000,
Visual Only,-0.05,left,6,6,66,6,188.8438513000001,,,,,,,,,,,,,188.82562060000782,188.8438513000001,189.07933020000928,189.07934750001004,189.09219930000836,190.59089250001125,190.5909088000044,190.60559740000463,190.82525610001176,190.8252760000032,190.83990720000293,190.83990720000293,191.6256979000027,right,0,,191.26407430000836,0.1682103999919491,,,191.63862350001,191.63862350001,,,,,,,,01,01,0.25,20,10,10,20,2024-10-29_11h56.57.867,vibrotactile_experiment_test,2024.1.1,None,2024-10-29 11h57.08.894055 +0000,
Visual Only,-1.5,left,6,7,67,2,191.63862350001,,,,,,,,,,,,,191.62616369999887,191.63862350001,191.87490439999965,191.8749356000044,191.88912180000625,193.37520350000705,193.3752239000023,193.38926300000458,193.6251939000067,193.62521740001102,193.63881600000605,193.63881600000605,194.4253180000087,left,1,193.63881600000605,193.86406669999997,0.16801500000292435,191.88912180000625,193.38926300000458,194.43927319999784,194.43927319999784,,,,,,,,01,01,0.25,20,10,10,20,2024-10-29_11h56.57.867,vibrotactile_experiment_test,2024.1.1,None,2024-10-29 11h57.08.894055 +0000,
Visual Only,1.5,right,6,8,68,3,194.43927319999784,,,,,,,,,,,,,194.42580190001172,194.43927319999784,194.67459270000109,194.67461360000016,194.68895320000593,196.17410540000128,196.17412680000416,196.18915440001,196.4241989000002,196.42422030000307,196.4392852000019,196.4392852000019,197.22431930000312,right,1,196.4392852000019,196.68077910000284,0.14376110000011977,194.68895320000593,196.18915440001,,,,,,,,,,01,01,0.25,20,10,10,20,2024-10-29_11h56.57.867,vibrotactile_experiment_test,2024.1.1,None,2024-10-29 11h57.08.894055 +0000,
Visual Only,-1.0,left,6,9,69,4,197.23899490000622,,,,,,,,,,,,,197.2252523000061,197.23899490000622,197.47441110000364,197.47442749999755,197.48933680000482,198.9743637000065,198.97440820001066,198.98952430000645,199.21118660000502,199.2112058000057,199.22193759999936,199.22193759999936,200.0073771000025,left,1,,199.47286809999787,0.13532000000122935,,,200.02200240000093,200.02200240000093,,,,,,,,01,01,0.25,20,10,10,20,2024-10-29_11h56.57.867,vibrotactile_experiment_test,2024.1.1,None,2024-10-29 11h57.08.894055 +0000,
Visual Only,-1.5,left,7,0,70,2,200.02200240000093,,,,,,,,,,,,,200.0078901000088,200.02200240000093,200.25767610000912,200.25769779999973,200.27537490001123,201.77357050000865,201.7735859000095,201.78906010001083,202.00814190000528,202.0081680000003,202.02278660000593,202.02278660000593,202.79406490000838,left,1,,202.28829310000583,0.1442832000029739,200.27537490001123,,,,,,,,,,,01,01,0.25,20,10,10,20,2024-10-29_11h56.57.867,vibrotactile_experiment_test,2024.1.1,None,2024-10-29 11h57.08.894055 +0000,
Visual Only,0.0,right,7,1,71,9,202.80564580000646,,,,,,,,,,,,,202.7945791000093,202.80564580000646,203.04363150001154,203.0436619000102,203.0575925000012,204.55778840000858,204.55780989999766,204.57226919999812,204.792414200012,204.79246789999888,204.80688190000365,204.80688190000365,205.5920269000053,right,1,,205.05647970001155,0.12032619999081362,203.0575925000012,,,,,,,,,,,01,01,0.25,20,10,10,20,2024-10-29_11h56.57.867,vibrotactile_experiment_test,2024.1.1,None,2024-10-29 11h57.08.894055 +0000,
Visual Only,1.0,right,7,2,72,5,205.60582989999966,,,,,,,,,,,,,205.5924859000079,205.60582989999966,205.84176599999773,205.84177910001017,205.85561400000006,207.34119970000756,207.3412141000008,207.35597000000416,207.591479900002,207.59150160000718,207.60748869999952,207.60748869999952,208.39142569999967,right,1,207.60748869999952,207.89633990000584,0.1442626000061864,205.85561400000006,207.35597000000416,,,,,,,,,,01,01,0.25,20,10,10,20,2024-10-29_11h56.57.867,vibrotactile_experiment_test,2024.1.1,None,2024-10-29 11h57.08.894055 +0000,
Visual Only,0.0,left,7,3,73,8,208.4054485000088,,,,,,,,,,,,,208.39217210000788,208.4054485000088,208.64121400000295,208.6412321000098,208.65574080000806,210.1422581000079,210.1423066999996,210.15585400001146,210.39056800000253,210.39058790000854,210.40559419999772,210.40559419999772,211.17537190001167,left,1,210.40559419999772,210.60087860000203,0.1592811000009533,208.65574080000806,,,,,,,,,,,01,01,0.25,20,10,10,20,2024-10-29_11h56.57.867,vibrotactile_experiment_test,2024.1.1,None,2024-10-29 11h57.08.894055 +0000,
Visual Only,-2.0,left,7,4,74,0,211.18985059999977,,,,,,,,,,,,,211.1759325000021,211.18985059999977,211.425035200009,211.42505840001104,211.43919330000062,212.92534960000194,212.9253721999994,212.9397076000023,213.1610006999981,213.16102060000412,213.1733064,213.1733064,213.95844719999877,left,1,,213.38458569999784,0.14408120000734925,211.43919330000062,212.9397076000023,213.97242689999985,213.97242689999985,,,,,,,,01,01,0.25,20,10,10,20,2024-10-29_11h56.57.867,vibrotactile_experiment_test,2024.1.1,None,2024-10-29 11h57.08.894055 +0000,
Visual Only,-1.0,left,7,5,75,4,213.97242689999985,,,,,,,,,,,,,213.95891690001008,213.97242689999985,214.20825270000205,214.20827190000273,214.22219939999923,215.7074857000116,215.7075052,215.7220273999992,215.96097820000432,215.96099279999908,215.97250420000637,215.97250420000637,216.74405970000953,left,1,,216.2248382000107,0.14417659999162424,214.22219939999923,215.7220273999992,,,,,,,,,,01,01,0.25,20,10,10,20,2024-10-29_11h56.57.867,vibrotactile_experiment_test,2024.1.1,None,2024-10-29 11h57.08.894055 +0000,
Visual Only,1.5,right,7,6,76,3,216.75548300000082,,,,,,,,,,,,,216.74451470001077,216.75548300000082,216.99032100000477,216.99033710001095,217.0055685999978,218.49173890000384,218.49175749999995,218.50563189999957,218.740572300012,218.74059220000345,218.75567690000753,218.75567690000753,219.54069230001187,right,1,218.75567690000753,218.93622830000822,0.11206499999389052,217.0055685999978,218.50563189999957,219.55534020000778,219.55534020000778,,,,,,,,01,01,0.25,20,10,10,20,2024-10-29_11h56.57.867,vibrotactile_experiment_test,2024.1.1,None,2024-10-29 11h57.08.894055 +0000,
Visual Only,2.0,right,7,7,77,1,219.55534020000778,,,,,,,,,,,,,219.54120960000728,219.55534020000778,219.7911119000055,219.79113500000676,219.8055047000089,221.2919181000034,221.29194350000762,221.30767200000992,221.52815740001097,221.52818560000742,221.54093640000792,221.54093640000792,222.3240666000056,right,1,,221.74434950000432,0.1283395000064047,219.8055047000089,,,,,,,,,,,01,01,0.25,20,10,10,20,2024-10-29_11h56.57.867,vibrotactile_experiment_test,2024.1.1,None,2024-10-29 11h57.08.894055 +0000,
Visual Only,-0.05,left,7,8,78,6,222.33963440000662,,,,,,,,,,,,,222.32455320000008,222.33963440000662,222.57484210000257,222.57485800000723,222.58996900000784,224.07485520000046,224.07486960000824,224.09008110000286,224.30914700000721,224.30916940000316,224.32467040000483,224.32467040000483,225.0946976999985,right,0,,224.60048380000808,0.12753859999065753,222.58996900000784,,,,,,,,,,,01,01,0.25,20,10,10,20,2024-10-29_11h56.57.867,vibrotactile_experiment_test,2024.1.1,None,2024-10-29 11h57.08.894055 +0000,
Visual Only,0.05,right,7,9,79,7,225.10800680000102,,,,,,,,,,,,,225.09517710001091,225.10800680000102,225.35751050000545,225.35752499999944,225.3727579000115,226.8581822999986,226.85819810000248,226.87250930001028,227.09320300001127,227.0932252000057,227.10742729999765,227.10742729999765,227.890910800008,right,1,,227.30436920000648,0.14460489999328274,,,,,,,,,,,,01,01,0.25,20,10,10,20,2024-10-29_11h56.57.867,vibrotactile_experiment_test,2024.1.1,None,2024-10-29 11h57.08.894055 +0000,
Visual Only,0.0,right,8,0,80,9,227.90570570000273,,,,,,,,,,,,,227.8914955000073,227.90570570000273,228.1413545000105,228.14137070000288,228.1562380000105,229.64065590000246,229.6406743999978,229.6552159999992,229.89088010000705,229.89090460000443,229.90896590000193,229.90896590000193,230.6908767999994,right,1,229.90896590000193,230.11288729999796,0.14344480000727344,,229.6552159999992,,,,,,,,,,01,01,0.25,20,10,10,20,2024-10-29_11h56.57.867,vibrotactile_experiment_test,2024.1.1,None,2024-10-29 11h57.08.894055 +0000,
Visual Only,1.0,right,8,1,81,5,230.7053780999995,,,,,,,,,,,,,230.69140219999827,230.7053780999995,230.9413796000008,230.9413998000091,230.95679100000416,232.4570270999975,232.45704280000064,232.4725732000079,232.67729770000733,232.67734540000674,232.69381750001048,232.69381750001048,233.47658370000136,right,1,,232.8482886999991,0.12011250000796281,,,,,,,,,,,,01,01,0.25,20,10,10,20,2024-10-29_11h56.57.867,vibrotactile_experiment_test,2024.1.1,None,2024-10-29 11h57.08.894055 +0000,
Visual Only,-0.05,left,8,2,82,6,233.4903617000091,,,,,,,,,,,,,233.4770969000092,233.4903617000091,233.7402645000111,233.74029070000688,233.755143900009,235.2409015000012,235.24092380001093,235.2590182999993,235.4763440000097,235.47637000000395,235.49022390000755,235.49022390000755,236.27390559999913,left,1,,235.60031330000493,0.13624249999702442,,,,,,,,,,,,01,01,0.25,20,10,10,20,2024-10-29_11h56.57.867,vibrotactile_experiment_test,2024.1.1,None,2024-10-29 11h57.08.894055 +0000,
Visual Only,0.0,left,8,3,83,8,236.2892012000084,,,,,,,,,,,,,236.274413799998,236.2892012000084,236.5271103999985,236.52712569999858,236.53900319999957,238.02484120000736,238.02488710000762,238.0418040000077,238.27765970000473,238.277674500001,238.28886010000133,238.28886010000133,239.06134030000248,left,1,,238.42490500000713,0.15965619999042246,,,,,,,,,,,,01,01,0.25,20,10,10,20,2024-10-29_11h56.57.867,vibrotactile_experiment_test,2024.1.1,None,2024-10-29 11h57.08.894055 +0000,
Visual Only,-2.0,left,8,4,84,0,239.07439530000556,,,,,,,,,,,,,239.06183659999806,239.07439530000556,239.3259648000094,239.32600610000372,239.34080630000972,240.82529240001168,240.82531700000982,240.8389659000095,241.05975970000145,241.05978350000805,241.07391140000254,241.07391140000254,241.85803670001042,left,1,,241.25684250000631,0.13582969999697525,,,,,,,,,,,,01,01,0.25,20,10,10,20,2024-10-29_11h56.57.867,vibrotactile_experiment_test,2024.1.1,None,2024-10-29 11h57.08.894055 +0000,
Visual Only,-1.0,left,8,5,85,4,241.87297789999866,,,,,,,,,,,,,241.85873610001,241.87297789999866,242.10825620000833,242.10827740000968,242.12230120001186,243.6085965000093,243.6086129000032,243.62212060000456,243.85776880000776,243.8577956000081,243.8721232000098,243.8721232000098,244.6570422000077,left,1,243.8721232000098,243.96810769999865,0.1365249000082258,242.12230120001186,,244.67508510001062,244.67508510001062,,,,,,,,01,01,0.25,20,10,10,20,2024-10-29_11h56.57.867,vibrotactile_experiment_test,2024.1.1,None,2024-10-29 11h57.08.894055 +0000,
Visual Only,0.05,right,8,6,86,7,244.67508510001062,,,,,,,,,,,,,244.65757320000557,244.67508510001062,244.92388370000117,244.92389780000667,244.94183700000576,246.4077229000104,246.40773790000821,246.42253750000964,246.65774910000619,246.6577651000116,246.6748951000045,246.6748951000045,247.45752979999816,right,1,,247.0246247000032,0.13633629999822006,,,,,,,,,,,,01,01,0.25,20,10,10,20,2024-10-29_11h56.57.867,vibrotactile_experiment_test,2024.1.1,None,2024-10-29 11h57.08.894055 +0000,
Visual Only,2.0,right,8,7,87,1,247.47199220000766,,,,,,,,,,,,,247.45803170000727,247.47199220000766,247.70768150000367,247.70769570000994,247.72516480000922,249.2077028000058,249.2077188000112,249.2223995000095,249.457882600007,249.45791009999812,249.47206020000158,249.47206020000158,250.2573093000101,right,1,,249.68866189999972,0.13604350000969134,247.72516480000922,,250.2722577000095,250.2722577000095,,,,,,,,01,01,0.25,20,10,10,20,2024-10-29_11h56.57.867,vibrotactile_experiment_test,2024.1.1,None,2024-10-29 11h57.08.894055 +0000,
Visual Only,-1.5,left,8,8,88,2,250.2722577000095,,,,,,,,,,,,,250.2578504999983,250.2722577000095,250.5073163000052,250.50733530000434,250.52189610000642,252.01217149999866,252.01218800000788,252.02409780000744,252.2582956999977,252.25831240000844,252.2719514000055,252.2719514000055,253.0473170000041,left,1,,252.44822840001143,0.168014899987611,250.52189610000642,,,,,,,,,,,01,01,0.25,20,10,10,20,2024-10-29_11h56.57.867,vibrotactile_experiment_test,2024.1.1,None,2024-10-29 11h57.08.894055 +0000,
Visual Only,1.5,right,8,9,89,3,253.0570541000052,,,,,,,,,,,,,253.04779019999842,253.0570541000052,253.30704720001086,253.3070626999979,253.32249050000974,254.80767190000915,254.80768810000154,254.82217830000445,255.04408960000728,255.0441351000045,255.0611976000073,255.0611976000073,255.8406956000108,right,1,,255.24855620000744,0.1282500999950571,,,,,,,,,,,,01,01,0.25,20,10,10,20,2024-10-29_11h56.57.867,vibrotactile_experiment_test,2024.1.1,None,2024-10-29 11h57.08.894055 +0000,
Visual Only,-0.05,left,9,0,90,6,255.8560004000028,,,,,,,,,,,,,255.84124530000554,255.8560004000028,256.09252260001085,256.0925672000012,256.1074279000022,257.6084993000113,257.6085204999981,257.623193300009,257.8413026000053,257.8413186000107,257.85557510000945,257.85557510000945,258.641274300011,right,0,,258.13623329999973,0.14392440000665374,,,,,,,,,,,,01,01,0.25,20,10,10,20,2024-10-29_11h56.57.867,vibrotactile_experiment_test,2024.1.1,None,2024-10-29 11h57.08.894055 +0000,
Visual Only,-2.0,left,9,1,91,0,258.65597010000783,,,,,,,,,,,,,258.6417572000064,258.65597010000783,258.8909122000041,258.8909338000085,258.9059785999998,260.39143879999756,260.3914589000051,260.40570230000594,260.64089629999944,260.6409158000024,260.65579109999817,260.65579109999817,261.440835100002,left,1,260.65579109999817,260.68847050001204,0.1517897999874549,258.9059785999998,260.40570230000594,261.4581384000048,261.4581384000048,,,,,,,,01,01,0.25,20,10,10,20,2024-10-29_11h56.57.867,vibrotactile_experiment_test,2024.1.1,None,2024-10-29 11h57.08.894055 +0000,
Visual Only,2.0,right,9,2,92,1,261.4581384000048,,,,,,,,,,,,,261.4413413000002,261.4581384000048,261.70697559999826,261.7069907999976,261.72251540000434,263.209791900008,263.20980670000426,263.2224208999978,263.42783710001095,263.42786100000376,263.43878080000286,263.43878080000286,264.2239588000084,right,1,,263.68097050000506,0.11152449999644887,,,264.23854750000464,264.23854750000464,,,,,,,,01,01,0.25,20,10,10,20,2024-10-29_11h56.57.867,vibrotactile_experiment_test,2024.1.1,None,2024-10-29 11h57.08.894055 +0000,
Visual Only,-1.0,left,9,3,93,4,264.23854750000464,,,,,,,,,,,,,264.2245000000112,264.23854750000464,264.4744742000039,264.47449200000847,264.49165360000916,265.99026390000654,265.9902792000066,266.00536470000225,266.2272292999987,266.22724630001176,266.2388837000035,266.2388837000035,267.02809250001155,left,1,,266.40814189999946,0.15269280000939034,264.49165360000916,,,,,,,,,,,01,01,0.25,20,10,10,20,2024-10-29_11h56.57.867,vibrotactile_experiment_test,2024.1.1,None,2024-10-29 11h57.08.894055 +0000,
Visual Only,1.0,right,9,4,94,5,267.0405923000071,,,,,,,,,,,,,267.0285539000033,267.0405923000071,267.29006970000046,267.290084799999,267.3058006000065,268.7743969000003,268.7744204000046,268.7888806000119,269.0245683000103,269.02458510000724,269.04110860000947,269.04110860000947,269.82413200000883,right,1,,269.2728853000008,0.16748670001106802,,,,,,,,,,,,01,01,0.25,20,10,10,20,2024-10-29_11h56.57.867,vibrotactile_experiment_test,2024.1.1,None,2024-10-29 11h57.08.894055 +0000,
Visual Only,0.0,left,9,5,95,8,269.83906959999877,,,,,,,,,,,,,269.8246235999977,269.83906959999877,270.076393299998,270.07641000000876,270.0905618000106,271.59096810000483,271.5909839000087,271.6084184000065,271.8248777999979,271.82489260000875,271.8386312000075,271.8386312000075,272.62460880000435,left,1,,272.1601503999991,0.14474290001089685,,,,,,,,,,,,01,01,0.25,20,10,10,20,2024-10-29_11h56.57.867,vibrotactile_experiment_test,2024.1.1,None,2024-10-29 11h57.08.894055 +0000,
Visual Only,1.5,right,9,6,96,3,272.6390364000108,,,,,,,,,,,,,272.62514329999976,272.6390364000108,272.8743952000077,272.87441620000754,272.888875500008,274.3745947999996,274.37461220000114,274.39213630001177,274.6246112000081,274.62463040000875,274.63856079999823,274.63856079999823,275.42536340000515,right,1,,274.96098300001177,0.14341749998857267,272.888875500008,274.39213630001177,,,,,,,,,,01,01,0.25,20,10,10,20,2024-10-29_11h56.57.867,vibrotactile_experiment_test,2024.1.1,None,2024-10-29 11h57.08.894055 +0000,
Visual Only,0.05,right,9,7,97,7,275.43864230001054,,,,,,,,,,,,,275.42618049999874,275.43864230001054,275.6746247000119,275.6746426000027,275.6891681999987,277.1747510999994,277.1747705000016,277.18942910000624,277.42471300000034,277.4247437000013,277.4401004000101,277.4401004000101,278.2246625999978,left,0,277.4401004000101,278.08077790000243,None,275.6891681999987,277.18942910000624,,,,,,,,,,01,01,0.25,20,10,10,20,2024-10-29_11h56.57.867,vibrotactile_experiment_test,2024.1.1,None,2024-10-29 11h57.08.894055 +0000,
Visual Only,-1.5,left,9,8,98,2,278.23925630000303,,,,,,,,,,,,,278.22521200000483,278.23925630000303,278.4743048000091,278.4743238000083,278.48970270001155,279.9746778999979,279.97469220000494,279.98857440000575,280.2247190000053,280.224744200008,280.24162149999756,280.24162149999756,281.0272651999985,left,1,280.24162149999756,280.6248639999976,0.1921454000112135,278.48970270001155,279.98857440000575,,,,,,,,,,01,01,0.25,20,10,10,20,2024-10-29_11h56.57.867,vibrotactile_experiment_test,2024.1.1,None,2024-10-29 11h57.08.894055 +0000,
Visual Only,0.0,right,9,9,99,9,281.04073320000316,,,,,,,,,,,,,281.02793029999884,281.04073320000316,281.29089250000834,281.2909082000115,281.3056648000056,282.79032500000903,282.7903403000091,282.8055999000062,283.0245842000004,283.0246099000069,283.0411835999985,283.0411835999985,283.8103412000055,right,1,,283.489279100002,0.1347933000070043,,,,,,,,,,,,01,01,0.25,20,10,10,20,2024-10-29_11h56.57.867,vibrotactile_experiment_test,2024.1.1,None,2024-10-29 11h57.08.894055 +0000,
,,,,,,,,,,,,,,,,,,,,,,,,,,,,,,,,,,,,,,,,,,283.8107013999979,283.82205200000317,283.82205200000317,285.44181899999967,space,285.43293360000825,None,01,01,0.25,20,10,10,20,2024-10-29_11h56.57.867,vibrotactile_experiment_test,2024.1.1,None,2024-10-29 11h57.08.894055 +0000,
