cue_text,visual_stim_orientation,correct_answer,trials.thisRepN,trials.thisTrialN,trials.thisN,trials.thisIndex,thisRow.t,notes,initialisation.started,initialisation.stopped,start_experiment.started,text.started,key_resp.started,start_experiment.stopped,key_resp.keys,key_resp.rt,key_resp.duration,trigger.started,trigger.stopped,cue.started,text_3.started,cue.stopped,cue_to_target.started,text_4.started,cue_to_target.stopped,checkerboard.started,grating.started,checkerboard.stopped,response_period.started,response.started,text_2.started,response.stopped,text_2.stopped,response_period.stopped,response.keys,response.corr,response.rt,response.duration,text_3.stopped,grating.stopped,text_4.stopped,end_experiment.started,end_text.started,end_button.started,end_experiment.stopped,end_button.keys,end_button.rt,end_button.duration,participant,run,trial_duration,standard_vibration_freq,target_vibration_diff,standard_checkerboard_freq,high_checkerboard_freq,date,expName,psychopyVersion,frameRate,expStart
,,,,,,,,,0.1357378,0.1363377,,,,,,,,,,,,,,,,,,,,,,,,,,,,,,,,,,,,,,,1,1,0.25,20,10,10,20,2024-10-29_15h33.54.536,vibrotactile_experiment_test,2024.1.1,None,2024-10-29 15h34.03.235789 +0000
,,,,,,,,,,,0.1363567,0.1821221,0.1821221,3.1447811,space,3.1205588,None,,,,,,,,,,,,,,,,,,,,,,,,,,,,,,,,1,1,0.25,20,10,10,20,2024-10-29_15h33.54.536,vibrotactile_experiment_test,2024.1.1,None,2024-10-29 15h34.03.235789 +0000
,,,,,,,,,,,,,,,,,,3.1448459,3.1451046,,,,,,,,,,,,,,,,,,,,,,,,,,,,,,1,1,0.25,20,10,10,20,2024-10-29_15h33.54.536,vibrotactile_experiment_test,2024.1.1,None,2024-10-29 15h34.03.235789 +0000
Visual Only,-1,left,0,0,0,4,3.2028559,,,,,,,,,,,,,3.1778629,3.2028559,3.4061221,3.4061404,3.4204594,4.9076067,4.9076482,4.9371202,5.14206,5.1420802,5.1546299,5.1546299,5.9556035,5.9556035,5.9401422,left,1,5.6881157,0.1600354,,,,,,,,,,,1,1,0.25,20,10,10,20,2024-10-29_15h33.54.536,vibrotactile_experiment_test,2024.1.1,None,2024-10-29 15h34.03.235789 +0000
Visual Only,-2,left,0,1,1,0,5.9556035,,,,,,,,,,,,,5.9414116,5.9556035,6.1941599,6.194175,6.2051915,7.7058148,7.7058352,7.7233569,7.9393233,7.9393494,7.9543751,7.9543751,,,8.7252789,left,1,8.2082624,0.1519244,,,,,,,,,,,1,1,0.25,20,10,10,20,2024-10-29_15h33.54.536,vibrotactile_experiment_test,2024.1.1,None,2024-10-29 15h34.03.235789 +0000
Visual Only,0,right,0,2,2,9,8.7395605,,,,,,,,,,,,,8.7257377,8.7395605,8.9888353,8.9888493,9.0063317,10.4891813,10.4892029,10.5041769,10.7225029,10.7225299,10.7369362,10.7369362,,,11.5247673,right,1,11.055942,0.1517255,,,,,,,,,,,1,1,0.25,20,10,10,20,2024-10-29_15h33.54.536,vibrotactile_experiment_test,2024.1.1,None,2024-10-29 15h34.03.235789 +0000
Visual Only,1,right,0,3,3,5,11.5372377,,,,,,,,,,,,,11.52522,11.5372377,11.7757257,11.7757424,11.7899191,13.2751832,13.2751975,13.2892992,13.5258732,13.5258889,13.537127,13.537127,,,14.3234134,right,1,13.8400953,0.1601313,,,,,,,,,,,1,1,0.25,20,10,10,20,2024-10-29_15h33.54.536,vibrotactile_experiment_test,2024.1.1,None,2024-10-29 15h34.03.235789 +0000
Visual Only,0.05,right,0,4,4,7,14.3369705,,,,,,,,,,,,,14.3242778,14.3369705,14.5724348,14.5724519,14.5872989,16.0726139,16.0726296,16.0873441,16.3080563,16.3081225,16.3211886,16.3211886,,,17.1085518,left,0,16.7358169,0.1847498,14.5872989,,,,,,,,,,1,1,0.25,20,10,10,20,2024-10-29_15h33.54.536,vibrotactile_experiment_test,2024.1.1,None,2024-10-29 15h34.03.235789 +0000
Visual Only,1.5,right,0,5,5,3,17.1213379,,,,,,,,,,,,,17.109014,17.1213379,17.3560448,17.3560631,17.3731565,18.860674,18.8606889,18.8708255,19.1059746,19.1059992,19.1204167,19.1204167,,,19.9083688,right,1,19.4003535,0.1918429,17.3731565,19.1204167,,,,,,,,,1,1,0.25,20,10,10,20,2024-10-29_15h33.54.536,vibrotactile_experiment_test,2024.1.1,None,2024-10-29 15h34.03.235789 +0000
Visual Only,-1.5,left,0,6,6,2,19.9208014,,,,,,,,,,,,,19.9088253,19.9208014,20.1562376,20.1562556,20.1701484,21.6560403,21.6560568,21.6707344,21.9060571,21.9060781,21.9203157,21.9203157,22.7201547,22.7201547,22.7062062,left,1,22.1695606,0.1748217,20.1701484,21.9203157,21.6707344,,,,,,,,1,1,0.25,20,10,10,20,2024-10-29_15h33.54.536,vibrotactile_experiment_test,2024.1.1,None,2024-10-29 15h34.03.235789 +0000
Visual Only,2,right,0,7,7,1,22.7201547,,,,,,,,,,,,,22.7067614,22.7201547,22.9562951,22.9563122,22.9705607,24.4562032,24.4562201,24.4704778,24.7056806,24.705704,24.7202365,24.7202365,,,25.5058836,right,1,24.9128032,0.1352037,22.9705607,24.7202365,24.4704778,,,,,,,,1,1,0.25,20,10,10,20,2024-10-29_15h33.54.536,vibrotactile_experiment_test,2024.1.1,None,2024-10-29 15h34.03.235789 +0000
Visual Only,0,left,0,8,8,8,25.5206048,,,,,,,,,,,,,25.5063971,25.5206048,25.7561249,25.7561445,25.7742098,27.2722398,27.2722541,27.2875859,27.5058677,27.5058908,27.5207575,27.5207575,,,28.3095218,right,0,27.9284763,0.1361641,,,,,,,,,,,1,1,0.25,20,10,10,20,2024-10-29_15h33.54.536,vibrotactile_experiment_test,2024.1.1,None,2024-10-29 15h34.03.235789 +0000
Visual Only,-0.05,left,0,9,9,6,28.3204715,,,,,,,,,,,,,28.3101995,28.3204715,28.5559048,28.5559281,28.5730181,30.0590275,30.059042,30.0706119,30.3065802,30.3065977,30.3208685,30.3208685,31.120777,31.120777,31.106014,left,1,30.7285518,0.1518187,28.5730181,,,,,,,,,,1,1,0.25,20,10,10,20,2024-10-29_15h33.54.536,vibrotactile_experiment_test,2024.1.1,None,2024-10-29 15h34.03.235789 +0000
Visual Only,-2,left,1,0,10,0,31.120777,,,,,,,,,,,,,31.1065626,31.120777,31.3558068,31.3558268,31.3703321,32.8568469,32.8568685,32.8759729,33.1092669,33.1092826,33.1207276,33.1207276,33.9204999,33.9204999,33.9064962,left,1,33.3529726,0.1590015,31.3703321,,32.8759729,,,,,,,,1,1,0.25,20,10,10,20,2024-10-29_15h33.54.536,vibrotactile_experiment_test,2024.1.1,None,2024-10-29 15h34.03.235789 +0000
Visual Only,2,right,1,1,11,1,33.9204999,,,,,,,,,,,,,33.9069988,33.9204999,34.1558305,34.1558487,34.1711865,35.6557289,35.6557453,35.6727606,35.8927523,35.8927709,35.9036674,35.9036674,36.7037987,36.7037987,36.6894203,right,1,36.0961968,0.1519561,34.1711865,,35.6727606,,,,,,,,1,1,0.25,20,10,10,20,2024-10-29_15h33.54.536,vibrotactile_experiment_test,2024.1.1,None,2024-10-29 15h34.03.235789 +0000
Visual Only,-1.5,left,1,2,12,2,36.7037987,,,,,,,,,,,,,36.6898966,36.7037987,36.9397242,36.9397398,36.9564567,38.4423904,38.4424055,38.4540912,38.6907665,38.6907916,38.7043761,38.7043761,,,39.4916802,left,1,38.8236873,0.1615732,36.9564567,,,,,,,,,,1,1,0.25,20,10,10,20,2024-10-29_15h33.54.536,vibrotactile_experiment_test,2024.1.1,None,2024-10-29 15h34.03.235789 +0000
Visual Only,-0.05,left,1,3,13,6,39.5044389,,,,,,,,,,,,,39.4921489,39.5044389,39.7392524,39.7392693,39.75392,41.2392249,41.2392445,41.2541584,41.4894275,41.4894491,41.5036329,41.5036329,42.3045958,42.3045958,42.2889965,left,1,41.7758541,0.1527753,39.75392,41.5036329,41.2541584,,,,,,,,1,1,0.25,20,10,10,20,2024-10-29_15h33.54.536,vibrotactile_experiment_test,2024.1.1,None,2024-10-29 15h34.03.235789 +0000
Visual Only,0,right,1,4,14,9,42.3045958,,,,,,,,,,,,,42.2895033,42.3045958,42.5420394,42.5420535,42.5536073,44.0389853,44.0390025,44.0541214,44.2898123,44.2898309,44.3045772,44.3045772,,,45.0925068,right,1,44.6725559,0.1435497,,,44.0541214,,,,,,,,1,1,0.25,20,10,10,20,2024-10-29_15h33.54.536,vibrotactile_experiment_test,2024.1.1,None,2024-10-29 15h34.03.235789 +0000
Visual Only,0.05,right,1,5,15,7,45.1036948,,,,,,,,,,,,,45.0929797,45.1036948,45.3395467,45.3395615,45.3546482,46.8411997,46.8412379,46.8583163,47.0899471,47.09001,47.1069269,47.1069269,,,47.8907335,right,1,47.4883078,0.1289089,45.3546482,,,,,,,,,,1,1,0.25,20,10,10,20,2024-10-29_15h33.54.536,vibrotactile_experiment_test,2024.1.1,None,2024-10-29 15h34.03.235789 +0000
Visual Only,1,right,1,6,16,5,47.9041932,,,,,,,,,,,,,47.8912168,47.9041932,48.1415164,48.1415323,48.1540545,49.6393614,49.6393799,49.656518,49.8909568,49.8909869,49.9039131,49.9039131,,,50.6916576,right,1,50.1596742,0.1521925,,,49.656518,,,,,,,,1,1,0.25,20,10,10,20,2024-10-29_15h33.54.536,vibrotactile_experiment_test,2024.1.1,None,2024-10-29 15h34.03.235789 +0000
Visual Only,1.5,right,1,7,17,3,50.7040877,,,,,,,,,,,,,50.6921023,50.7040877,50.9392723,50.9392901,50.9543748,52.4398097,52.4398256,52.457134,52.6933852,52.6934012,52.7069926,52.7069926,,,53.489082,right,1,52.9850996,0.1674163,50.9543748,,52.457134,,,,,,,,1,1,0.25,20,10,10,20,2024-10-29_15h33.54.536,vibrotactile_experiment_test,2024.1.1,None,2024-10-29 15h34.03.235789 +0000
Visual Only,0,left,1,8,18,8,53.506216,,,,,,,,,,,,,53.4895996,53.506216,53.7587422,53.7587572,53.772364,55.2555973,55.2556177,55.2704887,55.488998,55.4890238,55.5036138,55.5036138,,,56.2900086,left,1,55.7844011,0.200567,,,,,,,,,,,1,1,0.25,20,10,10,20,2024-10-29_15h33.54.536,vibrotactile_experiment_test,2024.1.1,None,2024-10-29 15h34.03.235789 +0000
Visual Only,-1,left,1,9,19,4,56.305214,,,,,,,,,,,,,56.2906449,56.305214,56.5400085,56.5400336,56.5544182,58.0417428,58.0417728,58.0536079,58.2734113,58.2734382,58.2871006,58.2871006,59.0899791,59.0899791,59.0724059,left,1,58.5762577,0.1756061,,,,,,,,,,,1,1,0.25,20,10,10,20,2024-10-29_15h33.54.536,vibrotactile_experiment_test,2024.1.1,None,2024-10-29 15h34.03.235789 +0000
Visual Only,-1,left,2,0,20,4,59.0899791,,,,,,,,,,,,,59.0729361,59.0899791,59.3237818,59.3238023,59.3377054,60.8244094,60.824425,60.8397532,61.0732086,61.0732362,61.0878242,61.0878242,61.8871324,61.8871324,61.8737296,right,0,61.7853236,None,,,,,,,,,,,1,1,0.25,20,10,10,20,2024-10-29_15h33.54.536,vibrotactile_experiment_test,2024.1.1,None,2024-10-29 15h34.03.235789 +0000
Visual Only,0,left,2,1,21,8,61.8871324,,,,,,,,,,,,,61.8744879,61.8871324,62.1223771,62.1223944,62.1386118,63.6413797,63.6413943,63.6538175,63.8735392,63.8735651,63.8881614,63.8881614,64.687649,64.687649,64.6726521,right,0,64.2557051,0.1602741,62.1386118,,,,,,,,,,1,1,0.25,20,10,10,20,2024-10-29_15h33.54.536,vibrotactile_experiment_test,2024.1.1,None,2024-10-29 15h34.03.235789 +0000
Visual Only,1.5,right,2,2,22,3,64.687649,,,,,,,,,,,,,64.6731743,64.687649,64.9251918,64.9252063,64.9369157,66.4256214,66.4256359,66.4399015,66.6594804,66.6595001,66.670476,66.670476,67.4740803,67.4740803,67.456886,right,1,67.1127204,0.1835537,,,,,,,,,,,1,1,0.25,20,10,10,20,2024-10-29_15h33.54.536,vibrotactile_experiment_test,2024.1.1,None,2024-10-29 15h34.03.235789 +0000
Visual Only,-1.5,left,2,3,23,2,67.4740803,,,,,,,,,,,,,67.4574115,67.4740803,67.7225986,67.722619,67.73684,69.2225441,69.2225697,69.2375971,69.455876,69.4559016,69.4705005,69.4705005,70.2708311,70.2708311,70.2557381,left,1,69.9204611,0.2001354,,,,,,,,,,,1,1,0.25,20,10,10,20,2024-10-29_15h33.54.536,vibrotactile_experiment_test,2024.1.1,None,2024-10-29 15h34.03.235789 +0000
Visual Only,0,right,2,4,24,9,70.2708311,,,,,,,,,,,,,70.2562447,70.2708311,70.5059068,70.5059243,70.5204884,72.0060299,72.0060484,72.0241756,72.2450075,72.2450447,72.2544095,72.2544095,73.0539328,73.0539328,73.0426483,right,1,72.6482968,0.1367924,70.5204884,,72.0241756,,,,,,,,1,1,0.25,20,10,10,20,2024-10-29_15h33.54.536,vibrotactile_experiment_test,2024.1.1,None,2024-10-29 15h34.03.235789 +0000
Visual Only,1,right,2,5,25,5,73.0539328,,,,,,,,,,,,,73.0430965,73.0539328,73.2893795,73.2893953,73.3043127,74.7923458,74.7923629,74.807181,75.0421604,75.0421783,75.053659,75.053659,75.8590643,75.8590643,75.8427197,right,1,75.3694253,0.19025,73.3043127,75.053659,74.807181,,,,,,,,1,1,0.25,20,10,10,20,2024-10-29_15h33.54.536,vibrotactile_experiment_test,2024.1.1,None,2024-10-29 15h34.03.235789 +0000
Visual Only,0.05,right,2,6,26,7,75.8590643,,,,,,,,,,,,,75.8433403,75.8590643,76.1064157,76.106437,76.1209261,77.6060117,77.6060259,77.6205742,77.8422611,77.8423078,77.8536314,77.8536314,78.6540608,78.6540608,78.6397278,left,0,78.248214,0.1918913,,,,,,,,,,,1,1,0.25,20,10,10,20,2024-10-29_15h33.54.536,vibrotactile_experiment_test,2024.1.1,None,2024-10-29 15h34.03.235789 +0000
Visual Only,-0.05,left,2,7,27,6,78.6540608,,,,,,,,,,,,,78.6402967,78.6540608,78.8895108,78.889532,78.904234,80.3892388,80.3892553,80.4044448,80.6400706,80.6400929,80.6538718,80.6538718,81.4538358,81.4538358,81.4392142,right,0,81.0248894,0.2074553,78.904234,80.6538718,80.4044448,,,,,,,,1,1,0.25,20,10,10,20,2024-10-29_15h33.54.536,vibrotactile_experiment_test,2024.1.1,None,2024-10-29 15h34.03.235789 +0000
Visual Only,-2,left,2,8,28,0,81.4538358,,,,,,,,,,,,,81.4397944,81.4538358,81.6897146,81.6897339,81.704022,83.1888595,83.1888794,83.2040764,83.4420255,83.4420413,83.4538597,83.4538597,,,84.2256203,left,1,83.7922586,0.1764622,81.704022,,83.2040764,,,,,,,,1,1,0.25,20,10,10,20,2024-10-29_15h33.54.536,vibrotactile_experiment_test,2024.1.1,None,2024-10-29 15h34.03.235789 +0000
Visual Only,2,right,2,9,29,1,84.2373743,,,,,,,,,,,,,84.2260761,84.2373743,84.4725405,84.4725591,84.4871139,85.9726118,85.9726303,85.9900503,86.2253326,86.2253503,86.2371322,86.2371322,,,87.0264483,right,1,86.6162413,0.1837839,84.4871139,86.2371322,85.9900503,,,,,,,,1,1,0.25,20,10,10,20,2024-10-29_15h33.54.536,vibrotactile_experiment_test,2024.1.1,None,2024-10-29 15h34.03.235789 +0000
Visual Only,1.5,right,3,0,30,3,87.0407954,,,,,,,,,,,,,87.026893,87.0407954,87.2896457,87.2896672,87.3045606,88.7754689,88.7755109,88.7892199,89.0257038,89.0257196,89.0373417,89.0373417,,,89.8122909,right,1,89.4962359,0.1282221,,,,,,,,,,,1,1,0.25,20,10,10,20,2024-10-29_15h33.54.536,vibrotactile_experiment_test,2024.1.1,None,2024-10-29 15h34.03.235789 +0000
Visual Only,0,left,3,1,31,8,89.8219448,,,,,,,,,,,,,89.8127639,89.8219448,90.0725365,90.0725574,90.0873802,91.5719897,91.5720043,91.5896584,91.8114925,91.8115141,91.8224081,91.8224081,,,92.605863,left,1,92.1923022,0.1840005,,,,,,,,,,,1,1,0.25,20,10,10,20,2024-10-29_15h33.54.536,vibrotactile_experiment_test,2024.1.1,None,2024-10-29 15h34.03.235789 +0000
Visual Only,0.05,right,3,2,32,7,92.620382,,,,,,,,,,,,,92.6063769,92.620382,92.8580466,92.8580884,92.8719569,94.3740778,94.3740919,94.3881922,94.6065522,94.6065768,94.6207712,94.6207712,95.4202885,95.4202885,95.4068081,right,1,94.9442769,0.1675261,,,,,,,,,,,1,1,0.25,20,10,10,20,2024-10-29_15h33.54.536,vibrotactile_experiment_test,2024.1.1,None,2024-10-29 15h34.03.235789 +0000
Visual Only,1,right,3,3,33,5,95.4202885,,,,,,,,,,,,,95.4073499,95.4202885,95.6589639,95.658979,95.670637,97.1558899,97.1559078,97.1732404,97.4060696,97.406098,97.4204181,97.4204181,,,98.2084422,right,1,97.6804176,0.1679583,,,97.1732404,,,,,,,,1,1,0.25,20,10,10,20,2024-10-29_15h33.54.536,vibrotactile_experiment_test,2024.1.1,None,2024-10-29 15h34.03.235789 +0000
Visual Only,-0.05,left,3,4,34,6,98.2202851,,,,,,,,,,,,,98.2088842,98.2202851,98.4560312,98.4560505,98.4731238,99.9748635,99.9748776,99.9878811,100.1925413,100.1925622,100.2039709,100.2039709,101.0041045,101.0041045,100.9895286,right,0,100.5764906,0.1834334,98.4731238,,,,,,,,,,1,1,0.25,20,10,10,20,2024-10-29_15h33.54.536,vibrotactile_experiment_test,2024.1.1,None,2024-10-29 15h34.03.235789 +0000
Visual Only,-1.5,left,3,5,35,2,101.0041045,,,,,,,,,,,,,100.9900462,101.0041045,101.2417791,101.2417934,101.2538196,102.7395394,102.7395548,102.7537123,102.9758202,102.9758431,102.9898619,102.9898619,103.7931626,103.7931626,103.7756702,left,1,103.2806135,0.2075688,,,102.7537123,,,,,,,,1,1,0.25,20,10,10,20,2024-10-29_15h33.54.536,vibrotactile_experiment_test,2024.1.1,None,2024-10-29 15h34.03.235789 +0000
Visual Only,-2,left,3,6,36,0,103.7931626,,,,,,,,,,,,,103.7761293,103.7931626,104.0420296,104.0420444,104.0539899,105.5394165,105.5394333,105.5538565,105.7762397,105.7762636,105.790239,105.790239,,,106.5733371,left,1,106.1766406,0.1759352,,,,,,,,,,,1,1,0.25,20,10,10,20,2024-10-29_15h33.54.536,vibrotactile_experiment_test,2024.1.1,None,2024-10-29 15h34.03.235789 +0000
Visual Only,-1,left,3,7,37,4,106.5873972,,,,,,,,,,,,,106.5738406,106.5873972,106.8242694,106.8242906,106.8425525,108.3401688,108.3402042,108.3542357,108.5732055,108.5732418,108.5872934,108.5872934,109.3872318,109.3872318,109.3724759,left,1,108.8079818,0.1773014,,,,,,,,,,,1,1,0.25,20,10,10,20,2024-10-29_15h33.54.536,vibrotactile_experiment_test,2024.1.1,None,2024-10-29 15h34.03.235789 +0000
Visual Only,2,right,3,8,38,1,109.3872318,,,,,,,,,,,,,109.3730028,109.3872318,109.6231437,109.6231601,109.6371051,111.1223533,111.122372,111.1405836,111.3725972,111.3726228,111.3872403,111.3872403,,,112.1728214,right,1,111.672606,0.1441171,109.6371051,,111.1405836,,,,,,,,1,1,0.25,20,10,10,20,2024-10-29_15h33.54.536,vibrotactile_experiment_test,2024.1.1,None,2024-10-29 15h34.03.235789 +0000
Visual Only,0,right,3,9,39,9,112.1873624,,,,,,,,,,,,,112.1733077,112.1873624,112.4225378,112.4225547,112.4373561,113.9226676,113.9226906,113.9374418,114.1724659,114.1724891,114.1868405,114.1868405,114.9869996,114.9869996,114.9727559,left,0,114.4879923,0.1684035,112.4373561,114.1868405,,,,,,,,,1,1,0.25,20,10,10,20,2024-10-29_15h33.54.536,vibrotactile_experiment_test,2024.1.1,None,2024-10-29 15h34.03.235789 +0000
Visual Only,-2,left,4,0,40,0,114.9869996,,,,,,,,,,,,,114.9732511,114.9869996,115.2231265,115.2231433,115.2416089,116.7391461,116.7391653,116.7538217,116.9731669,116.9731937,116.9881161,116.9881161,,,117.7588191,left,1,117.3596979,0.2009602,115.2416089,,,,,,,,,,1,1,0.25,20,10,10,20,2024-10-29_15h33.54.536,vibrotactile_experiment_test,2024.1.1,None,2024-10-29 15h34.03.235789 +0000
Visual Only,2,right,4,1,41,1,117.7731048,,,,,,,,,,,,,117.7592841,117.7731048,118.0223602,118.0223782,118.0423539,119.524882,119.5248964,119.5372634,119.7558423,119.7558712,119.7714793,119.7714793,,,120.5420655,right,1,120.0479854,0.1606188,,,,,,,,,,,1,1,0.25,20,10,10,20,2024-10-29_15h33.54.536,vibrotactile_experiment_test,2024.1.1,None,2024-10-29 15h34.03.235789 +0000
Visual Only,0,left,4,2,42,8,120.5538813,,,,,,,,,,,,,120.5427802,120.5538813,120.7913135,120.7913308,120.8063292,122.3063991,122.3064137,122.3209835,122.5395401,122.5395653,122.5536338,122.5536338,123.3539455,123.3539455,123.3389809,left,1,122.9766569,0.1676281,120.8063292,,,,,,,,,,1,1,0.25,20,10,10,20,2024-10-29_15h33.54.536,vibrotactile_experiment_test,2024.1.1,None,2024-10-29 15h34.03.235789 +0000
Visual Only,-0.05,left,4,3,43,6,123.3539455,,,,,,,,,,,,,123.339537,123.3539455,123.5892674,123.5892883,123.6045443,125.0917063,125.0917216,125.104469,125.3394228,125.3394485,125.3539155,125.3539155,126.1537566,126.1537566,126.1392807,left,1,125.7685593,0.1842296,123.6045443,125.3539155,,,,,,,,,1,1,0.25,20,10,10,20,2024-10-29_15h33.54.536,vibrotactile_experiment_test,2024.1.1,None,2024-10-29 15h34.03.235789 +0000
Visual Only,-1,left,4,4,44,4,126.1537566,,,,,,,,,,,,,126.1398274,126.1537566,126.3895885,126.3896052,126.4039333,127.8899455,127.8899668,127.9038588,128.1258847,128.125905,128.1369985,128.1369985,128.9373529,128.9373529,128.9229292,left,1,128.5037521,0.160361,126.4039333,,127.9038588,,,,,,,,1,1,0.25,20,10,10,20,2024-10-29_15h33.54.536,vibrotactile_experiment_test,2024.1.1,None,2024-10-29 15h34.03.235789 +0000
Visual Only,0,right,4,5,45,9,128.9373529,,,,,,,,,,,,,128.9239096,128.9373529,129.1727409,129.1727588,129.1869782,130.6726979,130.672716,130.6872294,130.9230673,130.9230882,130.937036,130.937036,,,131.7092863,right,1,131.3443045,0.1924226,129.1869782,130.937036,130.6872294,,,,,,,,1,1,0.25,20,10,10,20,2024-10-29_15h33.54.536,vibrotactile_experiment_test,2024.1.1,None,2024-10-29 15h34.03.235789 +0000
Visual Only,0.05,right,4,6,46,7,131.7205152,,,,,,,,,,,,,131.7097355,131.7205152,131.9588748,131.9588944,131.9736379,133.4721706,133.4721851,133.4872349,133.7065072,133.7065356,133.7203237,133.7203237,134.5213717,134.5213717,134.5062717,left,0,133.9920342,0.1607265,131.9736379,,,,,,,,,,1,1,0.25,20,10,10,20,2024-10-29_15h33.54.536,vibrotactile_experiment_test,2024.1.1,None,2024-10-29 15h34.03.235789 +0000
Visual Only,-1.5,left,4,7,47,2,134.5213717,,,,,,,,,,,,,134.5068023,134.5213717,134.7557631,134.7557806,134.7705854,136.2557992,136.2558161,136.2706293,136.5060454,136.5060672,136.5204529,136.5204529,,,137.3061425,left,1,136.8566638,0.1836818,134.7705854,136.5204529,136.2706293,,,,,,,,1,1,0.25,20,10,10,20,2024-10-29_15h33.54.536,vibrotactile_experiment_test,2024.1.1,None,2024-10-29 15h34.03.235789 +0000
Visual Only,1.5,right,4,8,48,3,137.3207821,,,,,,,,,,,,,137.3066066,137.3207821,137.5558397,137.5558577,137.5705631,139.0563106,139.0563298,139.0707961,139.3068972,139.3069217,139.3210501,139.3210501,,,140.0927326,right,1,139.6483449,0.1681009,137.5705631,,,,,,,,,,1,1,0.25,20,10,10,20,2024-10-29_15h33.54.536,vibrotactile_experiment_test,2024.1.1,None,2024-10-29 15h34.03.235789 +0000
Visual Only,1,right,4,9,49,5,140.1038501,,,,,,,,,,,,,140.0931726,140.1038501,140.3401561,140.3401733,140.3566793,141.8574904,141.8575107,141.8737327,142.0896663,142.0897009,142.1068428,142.1068428,,,142.8933803,right,1,142.448692,0.1839027,140.3566793,,,,,,,,,,1,1,0.25,20,10,10,20,2024-10-29_15h33.54.536,vibrotactile_experiment_test,2024.1.1,None,2024-10-29 15h34.03.235789 +0000
Visual Only,0.05,right,5,0,50,7,142.903734,,,,,,,,,,,,,142.8938297,142.903734,143.1423241,143.1423399,143.1538829,144.6398737,144.6398914,144.6546808,144.8895657,144.8895988,144.906448,144.906448,,,145.6895804,right,1,145.4080262,0.1769468,,144.906448,144.6546808,,,,,,,,1,1,0.25,20,10,10,20,2024-10-29_15h33.54.536,vibrotactile_experiment_test,2024.1.1,None,2024-10-29 15h34.03.235789 +0000
Visual Only,0,left,5,1,51,8,145.7039053,,,,,,,,,,,,,145.6900965,145.7039053,145.942681,145.9426949,145.9538845,147.4399278,147.4399463,147.4540581,147.6891075,147.6891337,147.7035507,147.7035507,,,148.4767049,right,0,148.0960446,0.1597806,,147.7035507,147.4540581,,,,,,,,1,1,0.25,20,10,10,20,2024-10-29_15h33.54.536,vibrotactile_experiment_test,2024.1.1,None,2024-10-29 15h34.03.235789 +0000
Visual Only,0,right,5,2,52,9,148.4872073,,,,,,,,,,,,,148.4772248,148.4872073,148.722477,148.7224937,148.737046,150.222952,150.2229665,150.237651,150.4729191,150.4729423,150.4878829,150.4878829,151.2871595,151.2871595,151.2727738,right,1,150.8400264,0.1759928,148.737046,150.4878829,150.237651,,,,,,,,1,1,0.25,20,10,10,20,2024-10-29_15h33.54.536,vibrotactile_experiment_test,2024.1.1,None,2024-10-29 15h34.03.235789 +0000
Visual Only,-0.05,left,5,3,53,6,151.2871595,,,,,,,,,,,,,151.2735366,151.2871595,151.522554,151.5225717,151.5371614,153.0260423,153.0260565,153.0404029,153.2728728,153.2728989,153.2877182,153.2877182,,,154.0594915,right,0,153.6244109,0.1522585,151.5371614,,,,,,,,,,1,1,0.25,20,10,10,20,2024-10-29_15h33.54.536,vibrotactile_experiment_test,2024.1.1,None,2024-10-29 15h34.03.235789 +0000
Visual Only,1,right,5,4,54,5,154.071516,,,,,,,,,,,,,154.0599398,154.071516,154.3072908,154.3073173,154.3205934,155.8101146,155.8101367,155.8222162,156.0564499,156.0564744,156.0704362,156.0704362,,,156.8429032,right,1,156.3361235,0.152185,154.3205934,,155.8222162,,,,,,,,1,1,0.25,20,10,10,20,2024-10-29_15h33.54.536,vibrotactile_experiment_test,2024.1.1,None,2024-10-29 15h34.03.235789 +0000
Visual Only,1.5,right,5,5,55,3,156.8542602,,,,,,,,,,,,,156.8433885,156.8542602,157.0891159,157.0891355,157.1064784,158.6081565,158.6081708,158.6205455,158.843558,158.8435864,158.8552082,158.8552082,159.656252,159.656252,159.6395413,right,1,159.1599006,0.160666,157.1064784,,,,,,,,,,1,1,0.25,20,10,10,20,2024-10-29_15h33.54.536,vibrotactile_experiment_test,2024.1.1,None,2024-10-29 15h34.03.235789 +0000
Visual Only,-1.5,left,5,6,56,2,159.656252,,,,,,,,,,,,,159.6400909,159.656252,159.8918064,159.8918208,159.9070933,161.3917702,161.391786,161.4041509,161.6252058,161.6252261,161.6373303,161.6373303,,,162.4252818,left,1,161.8326038,0.15264,,,,,,,,,,,1,1,0.25,20,10,10,20,2024-10-29_15h33.54.536,vibrotactile_experiment_test,2024.1.1,None,2024-10-29 15h34.03.235789 +0000
Visual Only,-2,left,5,7,57,0,162.4398777,,,,,,,,,,,,,162.425895,162.4398777,162.6748754,162.67489,162.6897461,164.1922808,164.192295,164.2039821,164.4255803,164.4256026,164.4373155,164.4373155,165.2372108,165.2372108,165.2229875,left,1,164.6480193,0.1600979,162.6897461,,,,,,,,,,1,1,0.25,20,10,10,20,2024-10-29_15h33.54.536,vibrotactile_experiment_test,2024.1.1,None,2024-10-29 15h34.03.235789 +0000
Visual Only,2,right,5,8,58,1,165.2372108,,,,,,,,,,,,,165.2235389,165.2372108,165.4745574,165.474573,165.4869316,166.972807,166.972825,166.9873364,167.2236531,167.2236781,167.237397,167.237397,168.0404558,168.0404558,168.0223133,right,1,167.4159955,0.1281015,,,166.9873364,,,,,,,,1,1,0.25,20,10,10,20,2024-10-29_15h33.54.536,vibrotactile_experiment_test,2024.1.1,None,2024-10-29 15h34.03.235789 +0000
Visual Only,-1,left,5,9,59,4,168.0404558,,,,,,,,,,,,,168.0228136,168.0404558,168.2887689,168.2887842,168.3044145,169.7750344,169.7750753,169.7902046,170.0257769,170.0257929,170.0397809,170.0397809,,,170.8096437,left,1,170.1845862,0.1751589,,,,,,,,,,,1,1,0.25,20,10,10,20,2024-10-29_15h33.54.536,vibrotactile_experiment_test,2024.1.1,None,2024-10-29 15h34.03.235789 +0000
Visual Only,0,right,6,0,60,9,170.8223582,,,,,,,,,,,,,170.8104808,170.8223582,171.0584257,171.05844,171.0703727,172.5561158,172.5561325,172.5703323,172.8112676,172.8112849,172.8227414,172.8227414,173.6209899,173.6209899,173.608268,right,1,173.0327584,0.1761026,171.0703727,,172.5703323,,,,,,,,1,1,0.25,20,10,10,20,2024-10-29_15h33.54.536,vibrotactile_experiment_test,2024.1.1,None,2024-10-29 15h34.03.235789 +0000
Visual Only,-0.05,left,6,1,61,6,173.6209899,,,,,,,,,,,,,173.6087363,173.6209899,173.8589718,173.8589873,173.8704899,175.3558675,175.3558866,175.3710773,175.6064306,175.6064512,175.6204049,175.6204049,,,176.4081494,right,0,175.8723815,0.1835337,,175.6204049,175.3710773,,,,,,,,1,1,0.25,20,10,10,20,2024-10-29_15h33.54.536,vibrotactile_experiment_test,2024.1.1,None,2024-10-29 15h34.03.235789 +0000
Visual Only,1,right,6,2,62,5,176.4200591,,,,,,,,,,,,,176.4085937,176.4200591,176.6555929,176.6556131,176.6699587,178.1558161,178.155837,178.1703838,178.4059754,178.4060002,178.4233259,178.4233259,,,179.2079081,right,1,178.6805849,0.1519591,176.6699587,178.4233259,178.1703838,,,,,,,,1,1,0.25,20,10,10,20,2024-10-29_15h33.54.536,vibrotactile_experiment_test,2024.1.1,None,2024-10-29 15h34.03.235789 +0000
Visual Only,0.05,right,6,3,63,7,179.2201909,,,,,,,,,,,,,179.208381,179.2201909,179.4581146,179.4581286,179.4703344,180.958354,180.9583688,180.9704226,181.2064037,181.2064521,181.2206079,181.2206079,,,182.0079644,left,0,181.4883151,0.1683391,,181.2206079,,,,,,,,,1,1,0.25,20,10,10,20,2024-10-29_15h33.54.536,vibrotactile_experiment_test,2024.1.1,None,2024-10-29 15h34.03.235789 +0000
Visual Only,-1,left,6,4,64,4,182.0232457,,,,,,,,,,,,,182.0084103,182.0232457,182.2581294,182.2581443,182.2704424,183.7583054,183.7583208,183.7731643,183.9920543,183.9920743,184.0037457,184.0037457,184.8060657,184.8060657,184.7923414,left,1,184.3119062,0.1761713,,,,,,,,,,,1,1,0.25,20,10,10,20,2024-10-29_15h33.54.536,vibrotactile_experiment_test,2024.1.1,None,2024-10-29 15h34.03.235789 +0000
Visual Only,1.5,right,6,5,65,3,184.8060657,,,,,,,,,,,,,184.7929611,184.8060657,185.0414652,185.04148,185.0538248,186.5395865,186.5396015,186.5563067,186.792283,186.7923026,186.806501,186.806501,,,187.589634,right,1,187.1206786,0.1351143,185.0538248,186.806501,186.5563067,,,,,,,,1,1,0.25,20,10,10,20,2024-10-29_15h33.54.536,vibrotactile_experiment_test,2024.1.1,None,2024-10-29 15h34.03.235789 +0000
Visual Only,-1.5,left,6,6,66,2,187.6036586,,,,,,,,,,,,,187.590194,187.6036586,187.8415339,187.8415805,187.853501,189.3404838,189.3405026,189.3570111,189.5752892,189.5753115,189.5876994,189.5876994,190.3868429,190.3868429,190.3723107,left,1,189.8559851,0.2081741,,,189.3570111,,,,,,,,1,1,0.25,20,10,10,20,2024-10-29_15h33.54.536,vibrotactile_experiment_test,2024.1.1,None,2024-10-29 15h34.03.235789 +0000
Visual Only,-2,left,6,7,67,0,190.3868429,,,,,,,,,,,,,190.3728203,190.3868429,190.6248475,190.6248618,190.6370749,192.1224595,192.122478,192.1374232,192.3749484,192.3749649,192.3870231,192.3870231,,,193.1587748,left,1,192.608015,0.1517577,,,192.1374232,,,,,,,,1,1,0.25,20,10,10,20,2024-10-29_15h33.54.536,vibrotactile_experiment_test,2024.1.1,None,2024-10-29 15h34.03.235789 +0000
Visual Only,2,right,6,8,68,1,193.1727055,,,,,,,,,,,,,193.1592355,193.1727055,193.4223882,193.422408,193.4370548,194.924823,194.9248364,194.9371233,195.1592457,195.1592661,195.1705428,195.1705428,195.9712049,195.9712049,195.9580029,right,1,195.4485218,0.1913208,,,,,,,,,,,1,1,0.25,20,10,10,20,2024-10-29_15h33.54.536,vibrotactile_experiment_test,2024.1.1,None,2024-10-29 15h34.03.235789 +0000
Visual Only,0,left,6,9,69,8,195.9712049,,,,,,,,,,,,,195.9584507,195.9712049,196.2059013,196.2059198,196.2235648,197.7222582,197.7222792,197.7397464,197.9585917,197.9586136,197.9703853,197.9703853,,,198.7587204,left,1,198.2326946,0.1596256,196.2235648,,,,,,,,,,1,1,0.25,20,10,10,20,2024-10-29_15h33.54.536,vibrotactile_experiment_test,2024.1.1,None,2024-10-29 15h34.03.235789 +0000
Visual Only,-1,left,7,0,70,4,198.7743864,,,,,,,,,,,,,198.7591734,198.7743864,199.0253455,199.0253652,199.0394963,200.5246838,200.5246982,200.5372562,200.7558771,200.7559052,200.7738296,200.7738296,,,201.5560643,left,1,201.0559587,0.183955,,,,,,,,,,,1,1,0.25,20,10,10,20,2024-10-29_15h33.54.536,vibrotactile_experiment_test,2024.1.1,None,2024-10-29 15h34.03.235789 +0000
Visual Only,0,right,7,1,71,9,201.5711079,,,,,,,,,,,,,201.556609,201.5711079,201.8092483,201.8092997,201.8219692,203.3063252,203.3063401,203.3212805,203.5424209,203.542441,203.5535645,203.5535645,204.3543073,204.3543073,204.3399275,right,1,203.9923724,0.1439275,,,,,,,,,,,1,1,0.25,20,10,10,20,2024-10-29_15h33.54.536,vibrotactile_experiment_test,2024.1.1,None,2024-10-29 15h34.03.235789 +0000
Visual Only,0,left,7,2,72,8,204.3543073,,,,,,,,,,,,,204.3404931,204.3543073,204.5921687,204.5921847,204.6036672,206.0913496,206.0913744,206.1062234,206.3396637,206.3396903,206.3536949,206.3536949,207.1560265,207.1560265,207.1388076,left,1,206.5843781,0.1921091,,,,,,,,,,,1,1,0.25,20,10,10,20,2024-10-29_15h33.54.536,vibrotactile_experiment_test,2024.1.1,None,2024-10-29 15h34.03.235789 +0000
Visual Only,-0.05,left,7,3,73,6,207.1560265,,,,,,,,,,,,,207.1393524,207.1560265,207.3917167,207.3917314,207.40424,208.8918638,208.8919024,208.9040494,209.1417405,209.1417585,209.1536559,209.1536559,,,209.9396235,left,1,209.3600163,0.1204911,,,,,,,,,,,1,1,0.25,20,10,10,20,2024-10-29_15h33.54.536,vibrotactile_experiment_test,2024.1.1,None,2024-10-29 15h34.03.235789 +0000
Visual Only,-1.5,left,7,4,74,2,209.9562278,,,,,,,,,,,,,209.9401993,209.9562278,210.1913696,210.191384,210.2059592,211.689526,211.689548,211.7037482,211.9251753,211.9251956,211.940082,211.940082,,,212.7228528,left,1,212.2480119,0.1762402,,,,,,,,,,,1,1,0.25,20,10,10,20,2024-10-29_15h33.54.536,vibrotactile_experiment_test,2024.1.1,None,2024-10-29 15h34.03.235789 +0000
Visual Only,1.5,right,7,5,75,3,212.7395998,,,,,,,,,,,,,212.7233254,212.7395998,212.9912001,212.9912332,213.0036301,214.4909981,214.4910135,214.5044951,214.7232466,214.7232696,214.7369789,214.7369789,215.537094,215.537094,215.5227801,right,1,214.976423,0.1678105,,,,,,,,,,,1,1,0.25,20,10,10,20,2024-10-29_15h33.54.536,vibrotactile_experiment_test,2024.1.1,None,2024-10-29 15h34.03.235789 +0000
Visual Only,-2,left,7,6,76,0,215.537094,,,,,,,,,,,,,215.5232511,215.537094,215.7779802,215.7779958,215.7896757,217.2760012,217.2760158,217.288049,217.5228823,217.5229036,217.5369013,217.5369013,218.3375791,218.3375791,218.3231812,left,1,217.8567097,0.1999504,,217.5369013,,,,,,,,,1,1,0.25,20,10,10,20,2024-10-29_15h33.54.536,vibrotactile_experiment_test,2024.1.1,None,2024-10-29 15h34.03.235789 +0000
Visual Only,1,right,7,7,77,5,218.3375791,,,,,,,,,,,,,218.3237305,218.3375791,218.5747693,218.5747848,218.5868955,220.0727702,220.072786,220.090045,220.3227227,220.3227552,220.3371152,220.3371152,221.1376419,221.1376419,221.1219997,right,1,220.5678708,0.1695482,,,220.090045,,,,,,,,1,1,0.25,20,10,10,20,2024-10-29_15h33.54.536,vibrotactile_experiment_test,2024.1.1,None,2024-10-29 15h34.03.235789 +0000
Visual Only,2,right,7,8,78,1,221.1376419,,,,,,,,,,,,,221.1225476,221.1376419,221.3722645,221.372282,221.3892068,222.8749479,222.8749629,222.8904047,223.1240279,223.1240496,223.1379587,223.1379587,,,223.9248948,right,1,223.3922091,0.1442485,221.3892068,,,,,,,,,,1,1,0.25,20,10,10,20,2024-10-29_15h33.54.536,vibrotactile_experiment_test,2024.1.1,None,2024-10-29 15h34.03.235789 +0000
Visual Only,0.05,right,7,9,79,7,223.9392152,,,,,,,,,,,,,223.9253075,223.9392152,224.188529,224.1885434,224.2034643,225.6887525,225.6887754,225.7065016,225.9227203,225.9227404,225.9397049,225.9397049,,,226.7227039,left,0,226.2157306,0.1689041,,,,,,,,,,,1,1,0.25,20,10,10,20,2024-10-29_15h33.54.536,vibrotactile_experiment_test,2024.1.1,None,2024-10-29 15h34.03.235789 +0000
Visual Only,0,right,8,0,80,9,226.7370091,,,,,,,,,,,,,226.7231726,226.7370091,226.9755195,226.9755416,226.9874248,228.4747877,228.4748023,228.4869222,228.7225472,228.7225736,228.737115,228.737115,,,229.5227107,right,1,228.9526457,0.1836673,,228.737115,,,,,,,,,1,1,0.25,20,10,10,20,2024-10-29_15h33.54.536,vibrotactile_experiment_test,2024.1.1,None,2024-10-29 15h34.03.235789 +0000
Visual Only,1.5,right,8,1,81,3,229.5373209,,,,,,,,,,,,,229.5232228,229.5373209,229.7749183,229.7749421,229.7925275,231.2885626,231.2885826,231.3051417,231.5086797,231.5087007,231.5204502,231.5204502,232.3206954,232.3206954,232.3063668,right,1,231.8403949,0.1605042,,,,,,,,,,,1,1,0.25,20,10,10,20,2024-10-29_15h33.54.536,vibrotactile_experiment_test,2024.1.1,None,2024-10-29 15h34.03.235789 +0000
Visual Only,0,left,8,2,82,8,232.3206954,,,,,,,,,,,,,232.3069136,232.3206954,232.5562536,232.5562742,232.5731883,234.0579306,234.0579456,234.0725393,234.3063543,234.3063854,234.3217539,234.3217539,,,235.0926477,left,1,234.6890033,0.183536,232.5731883,,,,,,,,,,1,1,0.25,20,10,10,20,2024-10-29_15h33.54.536,vibrotactile_experiment_test,2024.1.1,None,2024-10-29 15h34.03.235789 +0000
Visual Only,-2,left,8,3,83,0,235.103522,,,,,,,,,,,,,235.0931116,235.103522,235.3398657,235.3398859,235.3567397,236.8571346,236.8571641,236.8713078,237.093137,237.0931648,237.1039596,237.1039596,,,237.8938931,left,1,237.4158285,0.1693027,235.3567397,,,,,,,,,,1,1,0.25,20,10,10,20,2024-10-29_15h33.54.536,vibrotactile_experiment_test,2024.1.1,None,2024-10-29 15h34.03.235789 +0000
Visual Only,0.05,right,8,4,84,7,237.9044317,,,,,,,,,,,,,237.8943191,237.9044317,238.1395539,238.1395743,238.1565106,239.6581831,239.6581975,239.6701008,239.8920145,239.8920363,239.9038719,239.9038719,240.7032894,240.7032894,240.6893047,right,1,240.1764429,0.1678249,238.1565106,,,,,,,,,,1,1,0.25,20,10,10,20,2024-10-29_15h33.54.536,vibrotactile_experiment_test,2024.1.1,None,2024-10-29 15h34.03.235789 +0000
Visual Only,-1.5,left,8,5,85,2,240.7032894,,,,,,,,,,,,,240.6897528,240.7032894,240.9413366,240.9413511,240.9537099,242.4396313,242.4396484,242.4544658,242.6921124,242.6921291,242.7080518,242.7080518,,,243.4891745,left,1,242.9923503,0.1839926,,,242.4544658,,,,,,,,1,1,0.25,20,10,10,20,2024-10-29_15h33.54.536,vibrotactile_experiment_test,2024.1.1,None,2024-10-29 15h34.03.235789 +0000
Visual Only,1,right,8,6,86,5,243.5037796,,,,,,,,,,,,,243.4896659,243.5037796,243.739621,243.7396339,243.7541636,245.2390603,245.2390781,245.2535846,245.4894404,245.4894661,245.5065459,245.5065459,,,246.2900576,right,1,245.7919789,0.1283484,243.7541636,245.5065459,245.2535846,,,,,,,,1,1,0.25,20,10,10,20,2024-10-29_15h33.54.536,vibrotactile_experiment_test,2024.1.1,None,2024-10-29 15h34.03.235789 +0000
Visual Only,-1,left,8,7,87,4,246.3074559,,,,,,,,,,,,,246.2905285,246.3074559,246.5415274,246.5415415,246.5534995,248.0410766,248.0410908,248.0535546,248.2753585,248.2753787,248.2872316,248.2872316,249.0902163,249.0902163,249.0723709,left,1,248.6244178,0.1682291,,,,,,,,,,,1,1,0.25,20,10,10,20,2024-10-29_15h33.54.536,vibrotactile_experiment_test,2024.1.1,None,2024-10-29 15h34.03.235789 +0000
Visual Only,-0.05,left,8,8,88,6,249.0902163,,,,,,,,,,,,,249.0728735,249.0902163,249.3394621,249.3394832,249.3539127,250.82395,250.8239709,250.8390708,251.0590056,251.0590262,251.0704521,251.0704521,,,251.8600862,left,1,251.2963123,0.1596245,,,,,,,,,,,1,1,0.25,20,10,10,20,2024-10-29_15h33.54.536,vibrotactile_experiment_test,2024.1.1,None,2024-10-29 15h34.03.235789 +0000
Visual Only,2,right,8,9,89,1,251.8728477,,,,,,,,,,,,,251.860532,251.8728477,252.1216937,252.1217108,252.1367076,253.6220118,253.6220265,253.6400592,253.857693,253.8577241,253.8707425,253.8707425,254.671156,254.671156,254.6556256,right,1,254.2403364,0.1518903,,,,,,,,,,,1,1,0.25,20,10,10,20,2024-10-29_15h33.54.536,vibrotactile_experiment_test,2024.1.1,None,2024-10-29 15h34.03.235789 +0000
Visual Only,-1,left,9,0,90,4,254.671156,,,,,,,,,,,,,254.6561354,254.671156,254.9063336,254.9063566,254.9202754,256.4061956,256.406215,256.4204058,256.6426462,256.6426681,256.653669,256.653669,257.453914,257.453914,257.4424676,left,1,256.7763506,0.1114951,254.9202754,,,,,,,,,,1,1,0.25,20,10,10,20,2024-10-29_15h33.54.536,vibrotactile_experiment_test,2024.1.1,None,2024-10-29 15h34.03.235789 +0000
Visual Only,0,left,9,1,91,8,257.453914,,,,,,,,,,,,,257.4429225,257.453914,257.6893703,257.6893878,257.7067636,259.1916982,259.1917126,259.2044947,259.4423751,259.4423939,259.4533981,259.4533981,260.2536978,260.2536978,260.2390802,left,1,259.6883128,0.1516798,257.7067636,259.4533981,259.2044947,,,,,,,,1,1,0.25,20,10,10,20,2024-10-29_15h33.54.536,vibrotactile_experiment_test,2024.1.1,None,2024-10-29 15h34.03.235789 +0000
Visual Only,-1.5,left,9,2,92,2,260.2536978,,,,,,,,,,,,,260.2398623,260.2536978,260.4897663,260.4897849,260.5037386,261.9895097,261.9895286,262.0065571,262.2398603,262.2398899,262.2535366,262.2535366,,,263.0252382,left,1,262.4403973,0.1436755,260.5037386,,262.0065571,,,,,,,,1,1,0.25,20,10,10,20,2024-10-29_15h33.54.536,vibrotactile_experiment_test,2024.1.1,None,2024-10-29 15h34.03.235789 +0000
Visual Only,-0.05,left,9,3,93,6,263.039585,,,,,,,,,,,,,263.0256985,263.039585,263.2892005,263.2892213,263.304251,264.7912023,264.7912534,264.8068868,265.0254692,265.0254909,265.0369701,265.0369701,,,265.8120509,left,1,265.200957,0.150997,,,,,,,,,,,1,1,0.25,20,10,10,20,2024-10-29_15h33.54.536,vibrotactile_experiment_test,2024.1.1,None,2024-10-29 15h34.03.235789 +0000
Visual Only,1.5,right,9,4,94,3,265.8213719,,,,,,,,,,,,,265.8125454,265.8213719,266.0559274,266.0559471,266.0708349,267.5557397,267.5557601,267.5729292,267.812416,267.8124362,267.8210057,267.8210057,268.6202149,268.6202149,268.6054799,right,1,268.0805798,0.1601111,266.0708349,267.8210057,267.5729292,,,,,,,,1,1,0.25,20,10,10,20,2024-10-29_15h33.54.536,vibrotactile_experiment_test,2024.1.1,None,2024-10-29 15h34.03.235789 +0000
Visual Only,0,right,9,5,95,9,268.6202149,,,,,,,,,,,,,268.6060517,268.6202149,268.8579996,268.8580399,268.8721077,270.3723889,270.3724134,270.387319,270.6088796,270.6088959,270.620186,270.620186,271.4227035,271.4227035,271.406292,left,0,270.8962543,0.1282618,,,,,,,,,,,1,1,0.25,20,10,10,20,2024-10-29_15h33.54.536,vibrotactile_experiment_test,2024.1.1,None,2024-10-29 15h34.03.235789 +0000
Visual Only,0.05,right,9,6,96,7,271.4227035,,,,,,,,,,,,,271.4067579,271.4227035,271.672311,271.6723315,271.6871956,273.1725381,273.1725576,273.1869793,273.3921067,273.3921254,273.4044354,273.4044354,274.2036276,274.2036276,274.1896464,left,0,273.8401446,0.1361896,,,,,,,,,,,1,1,0.25,20,10,10,20,2024-10-29_15h33.54.536,vibrotactile_experiment_test,2024.1.1,None,2024-10-29 15h34.03.235789 +0000
Visual Only,2,right,9,7,97,1,274.2036276,,,,,,,,,,,,,274.1901019,274.2036276,274.4427711,274.4427854,274.4536213,275.9396221,275.9396366,275.9538547,276.175215,276.1752371,276.1872271,276.1872271,276.987211,276.987211,276.9722289,right,1,276.4640509,0.1526633,,,275.9538547,,,,,,,,1,1,0.25,20,10,10,20,2024-10-29_15h33.54.536,vibrotactile_experiment_test,2024.1.1,None,2024-10-29 15h34.03.235789 +0000
Visual Only,-2,left,9,8,98,0,276.987211,,,,,,,,,,,,,276.9727862,276.987211,277.2228002,277.2228149,277.2394552,278.7244551,278.7244802,278.7369744,278.9750152,278.9750323,278.9895102,278.9895102,,,279.7760226,left,1,279.3766033,0.1438082,277.2394552,,,,,,,,,,1,1,0.25,20,10,10,20,2024-10-29_15h33.54.536,vibrotactile_experiment_test,2024.1.1,None,2024-10-29 15h34.03.235789 +0000
Visual Only,1,right,9,9,99,5,279.7884087,,,,,,,,,,,,,279.7766235,279.7884087,280.0248832,280.0249082,280.0394767,281.5250619,281.5250761,281.5376291,281.7735035,281.7735603,281.7895529,281.7895529,,,282.5729894,right,1,282.0325462,0.1281514,,,,,,,,,,,1,1,0.25,20,10,10,20,2024-10-29_15h33.54.536,vibrotactile_experiment_test,2024.1.1,None,2024-10-29 15h34.03.235789 +0000
,,,,,,,,,,,,,,,,,,,,,,,,,,,,,,,,,,,,,,,,,,282.5733449,282.5871797,282.5871797,284.2402712,space,284.2325358,None,1,1,0.25,20,10,10,20,2024-10-29_15h33.54.536,vibrotactile_experiment_test,2024.1.1,None,2024-10-29 15h34.03.235789 +0000
