cue_text,visual_stim_orientation,correct_answer,trials.thisRepN,trials.thisTrialN,trials.thisN,trials.thisIndex,thisRow.t,notes,initialisation.started,initialisation.stopped,start_experiment.started,text.started,key_resp.started,start_experiment.stopped,key_resp.keys,key_resp.rt,key_resp.duration,trigger.started,trigger.stopped,cue.started,text_3.started,cue.stopped,cue_to_target.started,text_4.started,cue_to_target.stopped,checkerboard.started,grating.started,checkerboard.stopped,response_period.started,response.started,text_2.started,response_period.stopped,response.keys,response.corr,response.rt,response.duration,text_4.stopped,text_3.stopped,response.stopped,text_2.stopped,grating.stopped,end_experiment.started,end_text.started,end_button.started,end_experiment.stopped,end_button.keys,end_button.rt,end_button.duration,participant,run,trial_duration,standard_vibration_freq,target_vibration_diff,standard_checkerboard_freq,high_checkerboard_freq,date,expName,psychopyVersion,frameRate,expStart,
,,,,,,,,,0.010926099988864735,0.011273199997958727,,,,,,,,,,,,,,,,,,,,,,,,,,,,,,,,,,,,,,,01,01,0.25,20,10,10,20,2024-10-29_11h37.28.440,vibrotactile_experiment_test,2024.1.1,None,2024-10-29 11h41.46.009143 +0000,
,,,,,,,,,,,0.011288900001090951,0.026501100001041777,0.026501100001041777,2.180968999993638,space,2.1689956999907736,None,,,,,,,,,,,,,,,,,,,,,,,,,,,,,,,,01,01,0.25,20,10,10,20,2024-10-29_11h37.28.440,vibrotactile_experiment_test,2024.1.1,None,2024-10-29 11h41.46.009143 +0000,
,,,,,,,,,,,,,,,,,,2.1809986000007484,2.181251899994095,,,,,,,,,,,,,,,,,,,,,,,,,,,,,,01,01,0.25,20,10,10,20,2024-10-29_11h37.28.440,vibrotactile_experiment_test,2024.1.1,None,2024-10-29 11h41.46.009143 +0000,
Visual Only,-5.0,left,0,0,0,4,2.2070302999927662,,,,,,,,,,,,,2.187845499996911,2.2070302999927662,2.4429887000005692,2.4430036999983713,2.457860199996503,3.943428499987931,3.943444399992586,3.960654800001066,4.176710699990508,4.176733999993303,4.1947188999911305,4.1947188999911305,4.976962699991418,left,1,4.432634700002382,0.12867189999087714,,,,,,,,,,,,,01,01,0.25,20,10,10,20,2024-10-29_11h37.28.440,vibrotactile_experiment_test,2024.1.1,None,2024-10-29 11h41.46.009143 +0000,
Visual Only,0.0,left,0,1,1,8,4.994632799993269,,,,,,,,,,,,,4.977742299990496,4.994632799993269,5.229249099997105,5.229278400001931,5.241219599993201,6.727042599988636,6.727058299991768,6.743763199992827,6.979926300002262,6.979944899998372,6.991537800000515,6.991537800000515,7.78161099999852,left,1,7.425036799992085,0.1276730000099633,6.743763199992827,,,,,,,,,,,,01,01,0.25,20,10,10,20,2024-10-29_11h37.28.440,vibrotactile_experiment_test,2024.1.1,None,2024-10-29 11h41.46.009143 +0000,
Visual Only,0.0,right,0,2,2,9,7.79488859999401,,,,,,,,,,,,,7.782089100001031,7.79488859999401,8.046095899990178,8.046110399998724,8.058622199998354,9.543229799994151,9.543253499999992,9.558655799992266,9.782289599999785,9.782305399989127,9.794335099999444,9.794335099999444,10.577934000000823,right,1,10.16040979999525,0.14402849999896716,,,,,,,,,,,,,01,01,0.25,20,10,10,20,2024-10-29_11h37.28.440,vibrotactile_experiment_test,2024.1.1,None,2024-10-29 11h41.46.009143 +0000,
Visual Only,-2.5,left,0,3,3,6,10.59154480000143,,,,,,,,,,,,,10.57850370000233,10.59154480000143,10.82878329999221,10.82880189998832,10.841839399989112,12.326749999992899,12.326768799990532,12.342040299990913,12.563827699996182,12.563845600001514,12.57585680000193,12.57585680000193,13.360047399997711,left,1,12.744552599993767,0.18437240000639576,12.342040299990913,10.841839399989112,,,,,,,,,,,01,01,0.25,20,10,10,20,2024-10-29_11h37.28.440,vibrotactile_experiment_test,2024.1.1,None,2024-10-29 11h41.46.009143 +0000,
Visual Only,-7.5,left,0,4,4,2,13.375323699990986,,,,,,,,,,,,,13.360642300001928,13.375323699990986,13.612814499996603,13.612829499994405,13.62485699998797,15.114337999999407,15.114353600001778,15.128820500001893,15.360494399996242,15.360516100001405,15.37497789999179,15.37497789999179,16.160149199989974,left,1,15.609105299998191,0.14328599999134894,,,16.175364299997455,16.175364299997455,,,,,,,,,01,01,0.25,20,10,10,20,2024-10-29_11h37.28.440,vibrotactile_experiment_test,2024.1.1,None,2024-10-29 11h41.46.009143 +0000,
Visual Only,10.0,right,0,5,5,1,16.175364299997455,,,,,,,,,,,,,16.160722399989027,16.175364299997455,16.412560600001598,16.412576000002446,16.424569800001336,17.91059519999544,17.91061130000162,17.925693299999693,18.15991979998944,18.159946399988257,18.17464060000202,18.17464060000202,18.96012289999635,right,1,18.385081000000355,0.16729659998964053,17.925693299999693,,18.97550259999116,18.97550259999116,,,,,,,,,01,01,0.25,20,10,10,20,2024-10-29_11h37.28.440,vibrotactile_experiment_test,2024.1.1,None,2024-10-29 11h41.46.009143 +0000,
Visual Only,2.5,right,0,6,6,7,18.97550259999116,,,,,,,,,,,,,18.960713399996166,18.97550259999116,19.210333600000013,19.210350800000015,19.224629199990886,20.710451699997066,20.710465999989538,20.728184599996894,20.963192499999423,20.963211299997056,20.97469689999707,20.97469689999707,21.74950799999351,right,1,21.256320200001937,0.17631640000035986,20.728184599996894,19.224629199990886,,,,,,,,,,,01,01,0.25,20,10,10,20,2024-10-29_11h37.28.440,vibrotactile_experiment_test,2024.1.1,None,2024-10-29 11h41.46.009143 +0000,
Visual Only,7.5,right,0,7,7,3,21.759575499992934,,,,,,,,,,,,,21.749992199998815,21.759575499992934,22.010500799995498,22.01051649999863,22.027208399988012,23.509708899990073,23.509724599993206,23.5247243999911,23.745001799994498,23.74505159999535,23.759616399998777,23.759616399998777,24.54603589999897,right,1,23.97704949999752,0.17535199999110773,,,,,,,,,,,,,01,01,0.25,20,10,10,20,2024-10-29_11h37.28.440,vibrotactile_experiment_test,2024.1.1,None,2024-10-29 11h41.46.009143 +0000,
Visual Only,-10.0,left,0,8,8,0,24.55794600000081,,,,,,,,,,,,,24.546515099995304,24.55794600000081,24.795155699990573,24.795171199992183,24.81025719999161,26.30949509999482,26.309510799997952,26.32460799999535,26.54404059999797,26.54406429998926,26.55865520000225,26.55865520000225,27.34415409999201,left,1,26.721365599994897,0.15172120000352152,,24.81025719999161,27.358033099997556,27.358033099997556,,,,,,,,,01,01,0.25,20,10,10,20,2024-10-29_11h37.28.440,vibrotactile_experiment_test,2024.1.1,None,2024-10-29 11h41.46.009143 +0000,
Visual Only,5.0,right,0,9,9,5,27.358033099997556,,,,,,,,,,,,,27.344707299998845,27.358033099997556,27.59370849998959,27.593725999991875,27.611104700001306,29.113516899989918,29.113532799994573,29.124723399989307,29.343576100000064,29.34359740000218,29.3586731999967,29.3586731999967,30.14377669998794,right,1,29.513209999990067,0.12710680000600405,,27.611104700001306,30.158484399988083,30.158484399988083,,,,,,,,,01,01,0.25,20,10,10,20,2024-10-29_11h37.28.440,vibrotactile_experiment_test,2024.1.1,None,2024-10-29 11h41.46.009143 +0000,
Visual Only,-10.0,left,1,0,10,0,30.158484399988083,,,,,,,,,,,,,30.144519800000126,30.158484399988083,30.39403699999093,30.394055600001593,30.410779199999524,31.913001299995813,31.913016899998183,31.927664999995613,32.14374030000181,32.14376649999758,32.1578479000018,32.1578479000018,32.943239000000176,left,1,32.337802099995315,0.13482760000624694,,30.410779199999524,32.95793869999761,32.95793869999761,,,,,,,,,01,01,0.25,20,10,10,20,2024-10-29_11h37.28.440,vibrotactile_experiment_test,2024.1.1,None,2024-10-29 11h41.46.009143 +0000,
Visual Only,5.0,right,1,1,11,5,32.95793869999761,,,,,,,,,,,,,32.94379679999838,32.95793869999761,33.196145199995954,33.196159400002216,33.20819009999104,34.693688200000906,34.69370499999786,34.708500799999456,34.943854899989674,34.943889699992724,34.95858479999879,34.95858479999879,35.73036439999123,right,1,35.15261829999508,0.10444680000364315,34.708500799999456,,,,34.95858479999879,,,,,,,,01,01,0.25,20,10,10,20,2024-10-29_11h37.28.440,vibrotactile_experiment_test,2024.1.1,None,2024-10-29 11h41.46.009143 +0000,
Visual Only,7.5,right,1,2,12,3,35.74156949999451,,,,,,,,,,,,,35.73110779999115,35.74156949999451,35.976937999992515,35.976957699997,35.994459699999425,37.49376319999283,37.49377749999985,37.50836159999017,37.72696549999819,37.726992800002336,37.743233899993356,37.743233899993356,38.530116299996735,right,1,38.02481550000084,0.14483399999153335,,35.994459699999425,,,,,,,,,,,01,01,0.25,20,10,10,20,2024-10-29_11h37.28.440,vibrotactile_experiment_test,2024.1.1,None,2024-10-29 11h41.46.009143 +0000,
Visual Only,0.0,left,1,3,13,8,38.54153519999818,,,,,,,,,,,,,38.530576699995436,38.54153519999818,38.778610199995455,38.778644199992414,38.79260919999797,40.2773629000003,40.277378200000385,40.29160050000064,40.51416649999737,40.51418539999577,40.524697299988475,40.524697299988475,41.311147799991886,left,1,40.872731499999645,0.14371779999055434,,,41.32735619999585,41.32735619999585,,,,,,,,,01,01,0.25,20,10,10,20,2024-10-29_11h37.28.440,vibrotactile_experiment_test,2024.1.1,None,2024-10-29 11h41.46.009143 +0000,
Visual Only,-2.5,left,1,4,14,6,41.32735619999585,,,,,,,,,,,,,41.31172220000008,41.32735619999585,41.57727539999178,41.57729989998916,41.591778699992574,43.07699560000037,43.077011699992,43.09176119999029,43.30973649999942,43.309756399990874,43.32496050000191,43.32496050000191,44.11002159999043,left,1,43.52095120000013,0.135983899992425,,,,,,,,,,,,,01,01,0.25,20,10,10,20,2024-10-29_11h37.28.440,vibrotactile_experiment_test,2024.1.1,None,2024-10-29 11h41.46.009143 +0000,
Visual Only,2.5,right,1,5,15,7,44.12777759999153,,,,,,,,,,,,,44.11053569999058,44.12777759999153,44.36266919999616,44.36268389999168,44.377351599992835,45.87660129999858,45.876616199995624,45.89469190000091,46.113123699993594,46.11313959999825,46.12744250000105,46.12744250000105,46.911176499997964,right,1,46.360958599994774,0.07941360000404529,,,,,,,,,,,,,01,01,0.25,20,10,10,20,2024-10-29_11h37.28.440,vibrotactile_experiment_test,2024.1.1,None,2024-10-29 11h41.46.009143 +0000,
Visual Only,-5.0,left,1,6,16,4,46.92523569999321,,,,,,,,,,,,,46.91174619999947,46.92523569999321,47.160070799989626,47.16008529999817,47.175021199989715,48.660063399991486,48.660082499991404,48.67541440000059,48.897484799992526,48.89750599999388,48.908061199996155,48.908061199996155,49.69325830000162,left,1,49.15231619999395,0.12036139999690931,48.67541440000059,,49.708288699999684,49.708288699999684,,,,,,,,,01,01,0.25,20,10,10,20,2024-10-29_11h37.28.440,vibrotactile_experiment_test,2024.1.1,None,2024-10-29 11h41.46.009143 +0000,
Visual Only,-7.5,left,1,7,17,2,49.708288699999684,,,,,,,,,,,,,49.69380259999889,49.708288699999684,49.94653390000167,49.9465482999949,49.958013800001936,51.44369719999668,51.4437168000004,51.45826319999469,51.69681259999925,51.69682979999925,51.7083350999892,51.7083350999892,52.49381299999368,left,1,51.888197099993704,0.13672870000300463,51.45826319999469,,,,,,,,,,,,01,01,0.25,20,10,10,20,2024-10-29_11h37.28.440,vibrotactile_experiment_test,2024.1.1,None,2024-10-29 11h41.46.009143 +0000,
Visual Only,10.0,right,1,8,18,1,52.50869619999139,,,,,,,,,,,,,52.49448439999833,52.50869619999139,52.74624969999422,52.74629759999516,52.760959499995806,54.25952049999614,54.259535599994706,54.27470009999524,54.49361869999848,54.49363759999687,54.507932900000014,54.507932900000014,55.29352989999461,right,1,54.768119699991075,0.16071150000789203,,,55.3081930999906,55.3081930999906,,,,,,,,,01,01,0.25,20,10,10,20,2024-10-29_11h37.28.440,vibrotactile_experiment_test,2024.1.1,None,2024-10-29 11h41.46.009143 +0000,
Visual Only,0.0,right,1,9,19,9,55.3081930999906,,,,,,,,,,,,,55.29411249999248,55.3081930999906,55.54358699999284,55.543603699989035,55.55795570000191,57.04363790000207,57.04365599999437,57.05878579999262,57.29350119999435,57.29352539998945,57.308794199998374,57.308794199998374,58.07889369998884,left,0,57.664246799991815,0.16052630000922363,57.05878579999262,55.55795570000191,,,57.308794199998374,,,,,,,,01,01,0.25,20,10,10,20,2024-10-29_11h37.28.440,vibrotactile_experiment_test,2024.1.1,None,2024-10-29 11h41.46.009143 +0000,
Visual Only,-10.0,left,2,0,20,0,58.09162839999772,,,,,,,,,,,,,58.07950609999534,58.09162839999772,58.33026699999755,58.33028119998926,58.341368099994725,59.8267094999901,59.82672929999535,59.84188349999022,60.07738779998908,60.07741299999179,60.091347299996414,60.091347299996414,60.87730909998936,left,1,60.32897299999604,0.1518794000003254,59.84188349999022,,60.89159089999157,60.89159089999157,60.091347299996414,,,,,,,,01,01,0.25,20,10,10,20,2024-10-29_11h37.28.440,vibrotactile_experiment_test,2024.1.1,None,2024-10-29 11h41.46.009143 +0000,
Visual Only,5.0,right,2,1,21,5,60.89159089999157,,,,,,,,,,,,,60.87781009999162,60.89159089999157,61.12731469998835,61.12733269999444,61.14131159998942,62.62691880000057,62.62694180000108,62.641976699989755,62.86360050000076,62.86362079999526,62.8749528999906,62.8749528999906,63.660144800000126,right,1,63.264256299997214,0.1604685999918729,62.641976699989755,61.14131159998942,63.67492279999715,63.67492279999715,,,,,,,,,01,01,0.25,20,10,10,20,2024-10-29_11h37.28.440,vibrotactile_experiment_test,2024.1.1,None,2024-10-29 11h41.46.009143 +0000,
Visual Only,-5.0,left,2,2,22,4,63.67492279999715,,,,,,,,,,,,,63.6606996999908,63.67492279999715,63.910806699990644,63.91082689999894,63.92506139999023,65.41315079999913,65.41316709999228,65.42805669999507,65.66073949998827,65.66078459999699,65.67510599999514,65.67510599999514,66.44616549999046,left,1,65.92888429999584,0.16770190000534058,,63.92506139999023,,,,,,,,,,,01,01,0.25,20,10,10,20,2024-10-29_11h37.28.440,vibrotactile_experiment_test,2024.1.1,None,2024-10-29 11h41.46.009143 +0000,
Visual Only,-7.5,left,2,3,23,2,66.45788649999304,,,,,,,,,,,,,66.44663799999398,66.45788649999304,66.69341539999004,66.69343259999005,66.70805489999475,68.19661429998814,68.19662969998899,68.20826040000247,68.44393399999535,68.4439585999935,68.45821309999155,68.45821309999155,69.24331549998897,left,1,68.72889739999664,0.1914309999992838,68.20826040000247,66.70805489999475,69.25795389999985,69.25795389999985,68.45821309999155,,,,,,,,01,01,0.25,20,10,10,20,2024-10-29_11h37.28.440,vibrotactile_experiment_test,2024.1.1,None,2024-10-29 11h41.46.009143 +0000,
Visual Only,0.0,left,2,4,24,8,69.25795389999985,,,,,,,,,,,,,69.24386839999352,69.25795389999985,69.49353989999508,69.49355699999433,69.50830219998898,70.9930932999996,70.99311329999182,71.00808419998793,71.24374340000213,71.24376810000103,71.25909909998882,71.25909909998882,72.04648209999141,right,0,71.60903289999987,0.15993090000119992,71.00808419998793,69.50830219998898,,,71.25909909998882,,,,,,,,01,01,0.25,20,10,10,20,2024-10-29_11h37.28.440,vibrotactile_experiment_test,2024.1.1,None,2024-10-29 11h41.46.009143 +0000,
Visual Only,-2.5,left,2,5,25,6,72.05805849999888,,,,,,,,,,,,,72.04694159999781,72.05805849999888,72.29411089999485,72.29412710000179,72.31096639999305,73.7950118000008,73.79502759999014,73.81120969999756,74.04386939998949,74.04389489999448,74.06008529999235,74.06008529999235,74.8328896999883,left,1,74.2169819999981,0.1753613999899244,,72.31096639999305,,,,,,,,,,,01,01,0.25,20,10,10,20,2024-10-29_11h37.28.440,vibrotactile_experiment_test,2024.1.1,None,2024-10-29 11h41.46.009143 +0000,
Visual Only,10.0,right,2,6,26,1,74.84222189999127,,,,,,,,,,,,,74.83336769999005,74.84222189999127,75.07837779998954,75.07841719999851,75.09207969999989,76.57778880000114,76.57780719999573,76.59227239999746,76.82713049999438,76.82715339999413,76.8415485000005,76.8415485000005,77.6298456999939,right,1,77.05710209999233,0.159196200009319,76.59227239999746,75.09207969999989,,,76.8415485000005,,,,,,,,01,01,0.25,20,10,10,20,2024-10-29_11h37.28.440,vibrotactile_experiment_test,2024.1.1,None,2024-10-29 11h41.46.009143 +0000,
Visual Only,0.0,right,2,7,27,9,77.64126039999246,,,,,,,,,,,,,77.63031249999767,77.64126039999246,77.8768934999971,77.87691269999777,77.89462539998931,79.39769679999154,79.39771209999162,79.40830559999449,79.62707009998849,79.62710030000017,79.64160049999191,79.64160049999191,80.42959179999889,left,0,79.80823519999103,0.19291230000089854,,77.89462539998931,,,,,,,,,,,01,01,0.25,20,10,10,20,2024-10-29_11h37.28.440,vibrotactile_experiment_test,2024.1.1,None,2024-10-29 11h41.46.009143 +0000,
Visual Only,2.5,right,2,8,28,7,80.4414637000009,,,,,,,,,,,,,80.43007349999971,80.4414637000009,80.67648929999268,80.67651019999175,80.691682699995,82.17715979999048,82.17717450000055,82.19169399999373,82.42759500000102,82.42763579999155,82.44139249999716,82.44139249999716,83.22707100000116,right,1,82.75247849999869,0.1761221999913687,82.19169399999373,80.691682699995,83.2438933999947,83.2438933999947,82.44139249999716,,,,,,,,01,01,0.25,20,10,10,20,2024-10-29_11h37.28.440,vibrotactile_experiment_test,2024.1.1,None,2024-10-29 11h41.46.009143 +0000,
Visual Only,7.5,right,2,9,29,3,83.2438933999947,,,,,,,,,,,,,83.22759470000165,83.2438933999947,83.47757740000088,83.4776176000014,83.49514729999646,84.9793415999884,84.97935719999077,84.99581919999036,85.22669529999257,85.22672009999224,85.24189939998905,85.24189939998905,86.02705340000102,right,1,85.44070969999302,0.16076330000942107,,,86.05839879999985,86.05839879999985,,,,,,,,,01,01,0.25,20,10,10,20,2024-10-29_11h37.28.440,vibrotactile_experiment_test,2024.1.1,None,2024-10-29 11h41.46.009143 +0000,
Visual Only,-10.0,left,3,0,30,0,86.05839879999985,,,,,,,,,,,,,86.0276448999939,86.05839879999985,86.29343459999654,86.29344989999663,86.30842719999782,87.78103980000014,87.78105700000015,87.79430629999842,88.02712089999113,88.02714459999697,88.04441889999725,88.04441889999725,88.81273669999791,left,1,88.18470209999941,0.1773860999965109,,,,,,,,,,,,,01,01,0.25,20,10,10,20,2024-10-29_11h37.28.440,vibrotactile_experiment_test,2024.1.1,None,2024-10-29 11h41.46.009143 +0000,
Visual Only,2.5,right,3,1,31,7,88.82474009999714,,,,,,,,,,,,,88.81350889999885,88.82474009999714,89.06095990000176,89.06097469999804,89.07550399999309,90.56035939999856,90.56037839999772,90.57541449999553,90.81126799999038,90.81128850000096,90.8258727999928,90.8258727999928,91.61002769999322,right,1,91.04093950000242,0.19960739999078214,90.57541449999553,89.07550399999309,,,90.8258727999928,,,,,,,,01,01,0.25,20,10,10,20,2024-10-29_11h37.28.440,vibrotactile_experiment_test,2024.1.1,None,2024-10-29 11h41.46.009143 +0000,
Visual Only,-2.5,left,3,2,32,6,91.62710050000169,,,,,,,,,,,,,91.61061209999025,91.62710050000169,91.87976509999135,91.87978129999829,91.89163779999944,93.36131749999186,93.36135429999558,93.37454849999631,93.59571509998932,93.59573789998831,93.6082991000003,93.6082991000003,94.39596799999708,left,1,93.808237499994,0.17679159999534022,,,,,,,,,,,,,01,01,0.25,20,10,10,20,2024-10-29_11h37.28.440,vibrotactile_experiment_test,2024.1.1,None,2024-10-29 11h41.46.009143 +0000,
Visual Only,-7.5,left,3,3,33,2,94.41066809999757,,,,,,,,,,,,,94.39642849999655,94.41066809999757,94.65985279998858,94.6598682999902,94.67531479999889,96.16050600000017,96.1605211999995,96.1784045999957,96.39370289999351,96.39372819999699,96.40820320000057,96.40820320000057,97.19587060000049,left,1,96.6163641000021,0.12817349999386352,,,,,,,,,,,,,01,01,0.25,20,10,10,20,2024-10-29_11h37.28.440,vibrotactile_experiment_test,2024.1.1,None,2024-10-29 11h41.46.009143 +0000,
Visual Only,7.5,right,3,4,34,3,97.20794159999059,,,,,,,,,,,,,97.19633330000215,97.20794159999059,97.44388969999272,97.44390679999196,97.46115519999876,98.95983549999073,98.95985119999386,98.97761639999226,99.19429379999929,99.19431710000208,99.2078191999899,99.2078191999899,99.99326839999412,right,1,99.35269349999726,0.16826750000473112,,97.46115519999876,100.00849779999407,100.00849779999407,,,,,,,,,01,01,0.25,20,10,10,20,2024-10-29_11h37.28.440,vibrotactile_experiment_test,2024.1.1,None,2024-10-29 11h41.46.009143 +0000,
Visual Only,5.0,right,3,5,35,5,100.00849779999407,,,,,,,,,,,,,99.9938514999958,100.00849779999407,100.2439114000008,100.24393240000063,100.25857539998833,101.74842740000167,101.74844519999169,101.76040739999735,101.9938201999903,101.99383799999487,102.00878469999589,102.00878469999589,102.77884329999506,right,1,102.19238110000151,0.19256859998859,,100.25857539998833,,,,,,,,,,,01,01,0.25,20,10,10,20,2024-10-29_11h37.28.440,vibrotactile_experiment_test,2024.1.1,None,2024-10-29 11h41.46.009143 +0000,
Visual Only,0.0,right,3,6,36,9,102.79333079999196,,,,,,,,,,,,,102.77933720000146,102.79333079999196,103.04415139999765,103.0441720999952,103.05811719999474,104.54608889999508,104.54610419999517,104.55916439999419,104.77892609999981,104.77894899999956,104.79469119998976,104.79469119998976,105.5780972999928,left,0,105.01625629999035,0.1687007000000449,,,,,,,,,,,,,01,01,0.25,20,10,10,20,2024-10-29_11h37.28.440,vibrotactile_experiment_test,2024.1.1,None,2024-10-29 11h41.46.009143 +0000,
Visual Only,10.0,right,3,7,37,1,105.5922023000021,,,,,,,,,,,,,105.57902259999537,105.5922023000021,105.82886639999924,105.82888339999772,105.84191920000012,107.3281347000011,107.32815639999171,107.34440019998874,107.57771919999504,107.57773859999725,107.59191579998878,107.59191579998878,108.37747349998972,right,1,107.8246475999913,0.13568030000897124,107.34440019998874,105.84191920000012,108.39231440000003,108.39231440000003,,,,,,,,,01,01,0.25,20,10,10,20,2024-10-29_11h37.28.440,vibrotactile_experiment_test,2024.1.1,None,2024-10-29 11h41.46.009143 +0000,
Visual Only,0.0,left,3,8,38,8,108.39231440000003,,,,,,,,,,,,,108.37800260000222,108.39231440000003,108.62659780000104,108.62661320000188,108.64178969999193,110.12694309999642,110.12696149999101,110.14078770000197,110.37807569999131,110.37809829998878,110.39171129999158,110.39171129999158,111.17743179999525,right,0,110.67259889999696,0.128471999996691,110.14078770000197,108.64178969999193,111.19179559999611,111.19179559999611,110.39171129999158,,,,,,,,01,01,0.25,20,10,10,20,2024-10-29_11h37.28.440,vibrotactile_experiment_test,2024.1.1,None,2024-10-29 11h41.46.009143 +0000,
Visual Only,-5.0,left,3,9,39,4,111.19179559999611,,,,,,,,,,,,,111.17796010000166,111.19179559999611,111.42722939999658,111.42724589999125,111.44144450000022,112.92938409998897,112.92939849999675,112.94183539999358,113.16339619999053,113.16341719999036,113.17458089999855,113.17458089999855,113.9614079999883,left,1,113.35261039999023,0.1437858999997843,,111.44144450000022,113.97773359999701,113.97773359999701,,,,,,,,,01,01,0.25,20,10,10,20,2024-10-29_11h37.28.440,vibrotactile_experiment_test,2024.1.1,None,2024-10-29 11h41.46.009143 +0000,
Visual Only,0.0,right,4,0,40,9,113.97773359999701,,,,,,,,,,,,,113.96192239999073,113.97773359999701,114.22974819999945,114.2297627999942,114.2414798999962,115.72708129999228,115.72709689999465,115.74394159999792,115.96086329998798,115.96088919999602,115.9752165999962,115.9752165999962,116.76340299998992,right,1,116.27285569999367,0.1441769000084605,,,,,,,,,,,,,01,01,0.25,20,10,10,20,2024-10-29_11h37.28.440,vibrotactile_experiment_test,2024.1.1,None,2024-10-29 11h41.46.009143 +0000,
Visual Only,2.5,right,4,1,41,7,116.77615609999339,,,,,,,,,,,,,116.76428099999612,116.77615609999339,117.02637130000221,117.02638630000001,117.04144649999216,118.5296229999949,118.52963869999803,118.54169649998948,118.76616839999042,118.76618479999888,118.77678079999168,118.77678079999168,119.56021779999719,right,1,118.96029239999189,0.13608700000622775,,,,,,,,,,,,,01,01,0.25,20,10,10,20,2024-10-29_11h37.28.440,vibrotactile_experiment_test,2024.1.1,None,2024-10-29 11h41.46.009143 +0000,
Visual Only,-10.0,left,4,2,42,0,119.5754220999952,,,,,,,,,,,,,119.56075209999108,119.5754220999952,119.81069009999919,119.81071539998811,119.82536069999333,121.31067729998904,121.31069879999268,121.32470129999274,121.56143019998854,121.56145689998812,121.57566249999218,121.57566249999218,122.35996629999136,left,1,121.68058590000146,0.15240259999700356,121.32470129999274,,122.37496970000211,122.37496970000211,,,,,,,,,01,01,0.25,20,10,10,20,2024-10-29_11h37.28.440,vibrotactile_experiment_test,2024.1.1,None,2024-10-29 11h41.46.009143 +0000,
Visual Only,-2.5,left,4,3,43,6,122.37496970000211,,,,,,,,,,,,,122.36052009998821,122.37496970000211,122.610199799994,122.61021829998936,122.625040599989,124.11066539998865,124.11068449998857,124.12516869998944,124.36032959999284,124.3603529999964,124.37615109999024,124.37615109999024,125.16057259999798,left,1,124.57697829999961,0.15940189998946153,124.12516869998944,122.625040599989,,,124.37615109999024,,,,,,,,01,01,0.25,20,10,10,20,2024-10-29_11h37.28.440,vibrotactile_experiment_test,2024.1.1,None,2024-10-29 11h41.46.009143 +0000,
Visual Only,0.0,left,4,4,44,8,125.17771869999706,,,,,,,,,,,,,125.1610772999993,125.17771869999706,125.42749249999179,125.42751280000084,125.44158099999186,126.91250579999178,126.91252089999034,126.92514559999108,127.16014690000156,127.16017350000038,127.17463349999161,127.17463349999161,127.96263379999436,right,0,127.3204654000001,0.18391169999085832,,,,,127.17463349999161,,,,,,,,01,01,0.25,20,10,10,20,2024-10-29_11h37.28.440,vibrotactile_experiment_test,2024.1.1,None,2024-10-29 11h41.46.009143 +0000,
Visual Only,5.0,right,4,5,45,5,127.97753839999496,,,,,,,,,,,,,127.9631032999896,127.97753839999496,128.2263343999948,128.2263488999888,128.24446419999003,129.72663340000145,129.72665440000128,129.74339019999024,129.96029269999417,129.96032019999984,129.97441779999644,129.97441779999644,130.74667199999385,left,0,130.07267850000062,0.18444159999489784,,,,,,,,,,,,,01,01,0.25,20,10,10,20,2024-10-29_11h37.28.440,vibrotactile_experiment_test,2024.1.1,None,2024-10-29 11h41.46.009143 +0000,
Visual Only,7.5,right,4,6,46,3,130.76392569999734,,,,,,,,,,,,,130.74716829998943,130.76392569999734,131.00986359998933,131.00988420000067,131.02487039999687,132.51010449999012,132.51011930000095,132.52800910000224,132.74830500000098,132.7483196999965,132.76036159999785,132.76036159999785,133.54499569999462,right,1,132.94450929999584,0.1361826999927871,,,133.5585343999992,133.5585343999992,,,,,,,,,01,01,0.25,20,10,10,20,2024-10-29_11h37.28.440,vibrotactile_experiment_test,2024.1.1,None,2024-10-29 11h41.46.009143 +0000,
Visual Only,-7.5,left,4,7,47,2,133.5585343999992,,,,,,,,,,,,,133.54555419999815,133.5585343999992,133.79630109999562,133.79632239999773,133.80831759999273,135.29348419999587,135.29352429999562,135.30897329999425,135.5433447999967,135.54337179999857,135.55843489999825,135.55843489999825,136.34607639999012,left,1,135.69760909999604,0.1586368999996921,135.30897329999425,,,,135.55843489999825,,,,,,,,01,01,0.25,20,10,10,20,2024-10-29_11h37.28.440,vibrotactile_experiment_test,2024.1.1,None,2024-10-29 11h41.46.009143 +0000,
Visual Only,-5.0,left,4,8,48,4,136.35801559999527,,,,,,,,,,,,,136.34654069998942,136.35801559999527,136.59368279999762,136.59370159999526,136.6080488000007,138.09330469999986,138.09332469999208,138.1108219000016,138.34340919999522,138.34342710000055,138.35788489998959,138.35788489998959,139.14335849999043,left,1,138.52888209999946,0.1604656999988947,138.1108219000016,136.6080488000007,139.15799680000055,139.15799680000055,,,,,,,,,01,01,0.25,20,10,10,20,2024-10-29_11h37.28.440,vibrotactile_experiment_test,2024.1.1,None,2024-10-29 11h41.46.009143 +0000,
Visual Only,10.0,right,4,9,49,1,139.15799680000055,,,,,,,,,,,,,139.1439595999982,139.15799680000055,139.3955425999884,139.39555709999695,139.40842579999298,140.8962756999972,140.89629089999653,140.90826549999474,141.12969099999464,141.12971280000056,141.14124149999407,141.14124149999407,141.9265025999921,right,1,141.47283859999152,0.13618480000877753,,,141.94123279998894,141.94123279998894,,,,,,,,,01,01,0.25,20,10,10,20,2024-10-29_11h37.28.440,vibrotactile_experiment_test,2024.1.1,None,2024-10-29 11h41.46.009143 +0000,
Visual Only,-10.0,left,5,0,50,0,141.94123279998894,,,,,,,,,,,,,141.92703579999215,141.94123279998894,142.17668029999186,142.17669509998814,142.19152129998838,143.67924459998903,143.67925919999834,143.6916404999938,143.92683459998807,143.9268582999939,143.94144419999793,143.94144419999793,144.72979339999438,left,1,144.1046512999892,0.1846572000067681,,142.19152129998838,,,143.94144419999793,,,,,,,,01,01,0.25,20,10,10,20,2024-10-29_11h37.28.440,vibrotactile_experiment_test,2024.1.1,None,2024-10-29 11h41.46.009143 +0000,
Visual Only,2.5,right,5,1,51,7,144.74357169998984,,,,,,,,,,,,,144.73028969998995,144.74357169998984,144.9805434000009,144.98055870000098,144.99152270000195,146.47688879999623,146.47690850000072,146.49128219998966,146.73150189999433,146.73152069999196,146.74318809999386,146.74318809999386,147.52976409999246,right,1,147.2410988999909,0.19987930000934284,146.49128219998966,,,,,,,,,,,,01,01,0.25,20,10,10,20,2024-10-29_11h37.28.440,vibrotactile_experiment_test,2024.1.1,None,2024-10-29 11h41.46.009143 +0000,
Visual Only,10.0,right,5,2,52,1,147.54165210000065,,,,,,,,,,,,,147.53022190000047,147.54165210000065,147.7783677999978,147.77841289999196,147.7945777999994,149.29313159998856,149.29314680000243,149.30808049999177,149.52692189998925,149.5269372999901,149.54167310000048,149.54167310000048,150.32712599998922,right,1,149.82488179999928,0.15993779999553226,,,150.34128870000131,150.34128870000131,,,,,,,,,01,01,0.25,20,10,10,20,2024-10-29_11h37.28.440,vibrotactile_experiment_test,2024.1.1,None,2024-10-29 11h41.46.009143 +0000,
Visual Only,5.0,right,5,3,53,5,150.34128870000131,,,,,,,,,,,,,150.32764259999385,150.34128870000131,150.57729159999872,150.5773085999972,150.59128759999294,152.0776060999924,152.07762129999173,152.09135049999168,152.32690400000138,152.3269345000008,152.34147729999677,152.34147729999677,153.12943709999672,right,1,152.6809718000004,0.1594557999924291,152.09135049999168,150.59128759999294,,,152.34147729999677,,,,,,,,01,01,0.25,20,10,10,20,2024-10-29_11h37.28.440,vibrotactile_experiment_test,2024.1.1,None,2024-10-29 11h41.46.009143 +0000,
Visual Only,-7.5,left,5,4,54,2,153.14112889999524,,,,,,,,,,,,,153.1299202999944,153.14112889999524,153.37650699999358,153.3765257999912,153.39113519999955,154.87704439999652,154.87706400000025,154.891821600002,155.12916309999127,155.12917889999517,155.14143139999942,155.14143139999942,155.9269318000006,left,1,155.36041409999598,0.20042369999282528,154.891821600002,153.39113519999955,155.94160569999076,155.94160569999076,,,,,,,,,01,01,0.25,20,10,10,20,2024-10-29_11h37.28.440,vibrotactile_experiment_test,2024.1.1,None,2024-10-29 11h41.46.009143 +0000,
Visual Only,-5.0,left,5,5,55,4,155.94160569999076,,,,,,,,,,,,,155.927454699995,155.94160569999076,156.1766318000009,156.1766506999993,156.19422309999936,157.69315039999492,157.69316549999348,157.71112409999478,157.9265493999992,157.92657009999675,157.9412250000023,157.9412250000023,158.72936909999407,left,1,158.15233499999158,0.11193729999649804,,156.19422309999936,,,,,,,,,,,01,01,0.25,20,10,10,20,2024-10-29_11h37.28.440,vibrotactile_experiment_test,2024.1.1,None,2024-10-29 11h41.46.009143 +0000,
Visual Only,0.0,right,5,6,56,9,158.7434962999978,,,,,,,,,,,,,158.72983679999015,158.7434962999978,158.97998059999372,158.979998099996,158.9915539999929,160.48000909999246,160.48002519999864,160.49131889999262,160.72710749998805,160.72715479999897,160.746387399995,160.746387399995,161.52661020000232,right,1,161.0894021999993,0.15123350000067148,,,,,,,,,,,,,01,01,0.25,20,10,10,20,2024-10-29_11h37.28.440,vibrotactile_experiment_test,2024.1.1,None,2024-10-29 11h41.46.009143 +0000,
Visual Only,0.0,left,5,7,57,8,161.54196879999654,,,,,,,,,,,,,161.5271975999931,161.54196879999654,161.78100129999802,161.78101539998897,161.79800929999328,163.27945709999767,163.27947259999928,163.29174699999567,163.52681080000184,163.52683750000142,163.5412776000012,163.5412776000012,164.32720010000048,left,1,163.81633099999453,0.13669519999530166,,,164.3446799999947,164.3446799999947,163.5412776000012,,,,,,,,01,01,0.25,20,10,10,20,2024-10-29_11h37.28.440,vibrotactile_experiment_test,2024.1.1,None,2024-10-29 11h41.46.009143 +0000,
Visual Only,7.5,right,5,8,58,3,164.3446799999947,,,,,,,,,,,,,164.32776449999074,164.3446799999947,164.59328989998903,164.59331229999952,164.60822399999597,166.09340739999607,166.09343139998964,166.10849659999076,166.327778699997,166.3278003000014,166.34129019999818,166.34129019999818,167.1263983999961,right,1,166.5682678000012,0.13618149999820162,,,167.14126179998857,167.14126179998857,,,,,,,,,01,01,0.25,20,10,10,20,2024-10-29_11h37.28.440,vibrotactile_experiment_test,2024.1.1,None,2024-10-29 11h41.46.009143 +0000,
Visual Only,-2.5,left,5,9,59,6,167.14126179998857,,,,,,,,,,,,,167.12701869999,167.14126179998857,167.37668010000198,167.37669910000113,167.3912430999917,168.87803439999698,168.87805590000062,168.89190399998915,169.12955519999377,169.12957579999056,169.1411594999954,169.1411594999954,169.92790559999412,left,1,169.37694960000226,0.15970229999220464,,167.3912430999917,,,,,,,,,,,01,01,0.25,20,10,10,20,2024-10-29_11h37.28.440,vibrotactile_experiment_test,2024.1.1,None,2024-10-29 11h41.46.009143 +0000,
Visual Only,-5.0,left,6,0,60,4,169.94143839999742,,,,,,,,,,,,,169.9284703000012,169.94143839999742,170.1765058000019,170.17653179999616,170.1910923999967,171.6768918000016,171.6769110000023,171.69148969999515,171.92724869999802,171.92727339999692,171.9413113999908,171.9413113999908,172.72983079998812,left,1,172.08073519999743,0.14423370000440627,,170.1910923999967,,,171.9413113999908,,,,,,,,01,01,0.25,20,10,10,20,2024-10-29_11h37.28.440,vibrotactile_experiment_test,2024.1.1,None,2024-10-29 11h41.46.009143 +0000,
Visual Only,-2.5,left,6,1,61,6,172.74318669999775,,,,,,,,,,,,,172.73032969998894,172.74318669999775,172.99622400000226,172.99623819999397,173.00805059999402,174.49617709999438,174.49619109999912,174.5088359999936,174.72726639999019,174.72729629999958,174.74382299999706,174.74382299999706,175.52685299998848,left,1,174.95271990000037,0.16825199998856988,,,,,,,,,,,,,01,01,0.25,20,10,10,20,2024-10-29_11h37.28.440,vibrotactile_experiment_test,2024.1.1,None,2024-10-29 11h41.46.009143 +0000,
Visual Only,-7.5,left,6,2,62,2,175.54107549999026,,,,,,,,,,,,,175.5273859000008,175.54107549999026,175.77768089999154,175.77770469999814,175.79393600000185,177.29316919999837,177.29318509998848,177.31129269998928,177.5270509999973,177.5270859000011,177.5413120000012,177.5413120000012,178.32651289999194,left,1,177.71314189999248,0.20784509999793954,,,178.34138489999168,178.34138489999168,,,,,,,,,01,01,0.25,20,10,10,20,2024-10-29_11h37.28.440,vibrotactile_experiment_test,2024.1.1,None,2024-10-29 11h41.46.009143 +0000,
Visual Only,7.5,right,6,3,63,3,178.34138489999168,,,,,,,,,,,,,178.32703570000012,178.34138489999168,178.57714110000234,178.5771565999894,178.59119459999783,180.07731539999077,180.0773307999916,180.09142959999735,180.32679539998935,180.32682029998978,180.34467159998894,180.34467159998894,181.12691759999143,right,1,180.53690759999154,0.12816350000503007,,,,,180.34467159998894,,,,,,,,01,01,0.25,20,10,10,20,2024-10-29_11h37.28.440,vibrotactile_experiment_test,2024.1.1,None,2024-10-29 11h41.46.009143 +0000,
Visual Only,0.0,right,6,4,64,9,181.1411791999999,,,,,,,,,,,,,181.12747799999488,181.1411791999999,181.37714009999763,181.37715449999087,181.3938930000004,182.89397710000048,182.89400039998873,182.90895029999956,183.12741180000012,183.12743349999073,183.14434549999714,183.14434549999714,183.92696549999528,left,0,183.44867820000218,0.1915825999894878,,181.3938930000004,,,,,,,,,,,01,01,0.25,20,10,10,20,2024-10-29_11h37.28.440,vibrotactile_experiment_test,2024.1.1,None,2024-10-29 11h41.46.009143 +0000,
Visual Only,-10.0,left,6,5,65,0,183.94116829999257,,,,,,,,,,,,,183.92754520000017,183.94116829999257,184.17970969999442,184.17972479999298,184.1916584999999,185.67721889998938,185.67723669999395,185.6912891999964,185.92738490000193,185.92741039999237,185.94395089999307,185.94395089999307,186.72782369999913,left,1,186.11321129999124,0.16773149999789894,185.6912891999964,,,,185.94395089999307,,,,,,,,01,01,0.25,20,10,10,20,2024-10-29_11h37.28.440,vibrotactile_experiment_test,2024.1.1,None,2024-10-29 11h41.46.009143 +0000,
Visual Only,5.0,right,6,6,66,5,186.74319539999124,,,,,,,,,,,,,186.72859459999017,186.74319539999124,186.9930841000023,186.99309899999935,187.0079090999934,188.48049719999835,188.48051309998846,188.4944964000024,188.71369059999415,188.71371109999018,188.72558719999506,188.72558719999506,189.5130063999968,right,1,189.2894365999964,0.15118050000455696,,,189.524651300002,189.524651300002,,,,,,,,,01,01,0.25,20,10,10,20,2024-10-29_11h37.28.440,vibrotactile_experiment_test,2024.1.1,None,2024-10-29 11h41.46.009143 +0000,
Visual Only,0.0,left,6,7,67,8,189.524651300002,,,,,,,,,,,,,189.51347910000186,189.524651300002,189.76236939999217,189.76240219999454,189.77601809999032,191.26257669999904,191.2625904000015,191.27484939999704,191.5106364999956,191.51066629998968,191.5244773000013,191.5244773000013,192.31035279999196,left,1,192.00831989999278,0.19999340000504162,191.27484939999704,189.77601809999032,192.3254389999929,192.3254389999929,191.5244773000013,,,,,,,,01,01,0.25,20,10,10,20,2024-10-29_11h37.28.440,vibrotactile_experiment_test,2024.1.1,None,2024-10-29 11h41.46.009143 +0000,
Visual Only,10.0,right,6,8,68,1,192.3254389999929,,,,,,,,,,,,,192.31095309999364,192.3254389999929,192.56059739999182,192.56061459999182,192.57499839999946,194.0613760999986,194.06139679999615,194.0754719999968,194.30999119998887,194.31001429999014,194.32463649999409,194.32463649999409,195.1099411999894,right,1,194.66497420000087,0.1837085000006482,,192.57499839999946,195.1245987000002,195.1245987000002,194.32463649999409,,,,,,,,01,01,0.25,20,10,10,20,2024-10-29_11h37.28.440,vibrotactile_experiment_test,2024.1.1,None,2024-10-29 11h41.46.009143 +0000,
Visual Only,2.5,right,6,9,69,7,195.1245987000002,,,,,,,,,,,,,195.1105103000009,195.1245987000002,195.36050749999413,195.3605269999971,195.37461189999885,196.8600301999977,196.8600495999999,196.87491349999618,197.11336899999878,197.11338359999354,197.1275323000009,197.1275323000009,197.89755409999634,right,1,197.56903579999926,0.18356559998937882,196.87491349999618,195.37461189999885,,,,,,,,,,,01,01,0.25,20,10,10,20,2024-10-29_11h37.28.440,vibrotactile_experiment_test,2024.1.1,None,2024-10-29 11h41.46.009143 +0000,
Visual Only,-2.5,left,7,0,70,6,197.90894649999973,,,,,,,,,,,,,197.8980242999969,197.90894649999973,198.15987519999908,198.1598903999984,198.17465669999365,199.6595743999933,199.65958999999566,199.67481810000027,199.8939568999922,199.893983499991,199.90793689999555,199.90793689999555,200.69352770000114,left,1,200.19266760000028,0.16023769999446813,,,200.71147359999304,200.71147359999304,,,,,,,,,01,01,0.25,20,10,10,20,2024-10-29_11h37.28.440,vibrotactile_experiment_test,2024.1.1,None,2024-10-29 11h41.46.009143 +0000,
Visual Only,7.5,right,7,1,71,3,200.71147359999304,,,,,,,,,,,,,200.6940445999935,200.71147359999304,200.95962389999477,200.95963869999105,200.97563499999524,202.45940490000066,202.45941969999694,202.47538559998793,202.69391149999865,202.69393779999518,202.70838329999242,202.70838329999242,203.49343919999956,right,1,202.92858890000207,0.19237829999474343,,,203.50782400000026,203.50782400000026,,,,,,,,,01,01,0.25,20,10,10,20,2024-10-29_11h37.28.440,vibrotactile_experiment_test,2024.1.1,None,2024-10-29 11h41.46.009143 +0000,
Visual Only,2.5,right,7,2,72,7,203.50782400000026,,,,,,,,,,,,,203.4939594999887,203.50782400000026,203.7447586999915,203.74478209999506,203.75948300000164,205.24389659998997,205.24391779999132,205.2582173999981,205.49411079999118,205.49412609999126,205.51136899999983,205.51136899999983,206.29399340000236,right,1,205.75267419999,0.15166950000275392,,,,,,,,,,,,,01,01,0.25,20,10,10,20,2024-10-29_11h37.28.440,vibrotactile_experiment_test,2024.1.1,None,2024-10-29 11h41.46.009143 +0000,
Visual Only,10.0,right,7,3,73,1,206.30831079999916,,,,,,,,,,,,,206.29450540000107,206.30831079999916,206.54610019999382,206.54611569999543,206.55841499999224,208.0436589000019,208.0436783999903,208.05945639999118,208.29337539999688,208.29340569999476,208.30861929999082,208.30861929999082,209.09367960000236,right,1,208.69653749999998,0.16049219999695197,208.05945639999118,,209.10797250000178,209.10797250000178,,,,,,,,,01,01,0.25,20,10,10,20,2024-10-29_11h37.28.440,vibrotactile_experiment_test,2024.1.1,None,2024-10-29 11h41.46.009143 +0000,
Visual Only,-5.0,left,7,4,74,4,209.10797250000178,,,,,,,,,,,,,209.09426600000006,209.10797250000178,209.3438385999907,209.34385689999908,209.35856860000058,210.84381489999942,210.84383369999705,210.85870329999307,211.0938804999896,211.0939045999985,211.11150059998909,211.11150059998909,211.89418339999975,left,1,211.56895929999882,0.18326959999103565,210.85870329999307,209.35856860000058,,,211.11150059998909,,,,,,,,01,01,0.25,20,10,10,20,2024-10-29_11h37.28.440,vibrotactile_experiment_test,2024.1.1,None,2024-10-29 11h41.46.009143 +0000,
Visual Only,-10.0,left,7,5,75,0,211.90826889999153,,,,,,,,,,,,,211.89471909998974,211.90826889999153,212.14358409999113,212.14360379999562,212.15848610000103,213.6442173999967,213.64423819999502,213.658692099998,213.8800682000001,213.88009039999451,213.89141479998943,213.89141479998943,214.67728550000174,left,1,214.08070969999244,0.17635589999554213,213.658692099998,212.15848610000103,214.69141899999522,214.69141899999522,,,,,,,,,01,01,0.25,20,10,10,20,2024-10-29_11h37.28.440,vibrotactile_experiment_test,2024.1.1,None,2024-10-29 11h41.46.009143 +0000,
Visual Only,-7.5,left,7,6,76,2,214.69141899999522,,,,,,,,,,,,,214.67783749999944,214.69141899999522,214.92698360000213,214.92700250000053,214.9417803999968,216.42746959999204,216.427489099995,216.441823199988,216.67764499998884,216.6776644999918,216.69122609999613,216.69122609999613,217.47739709999587,left,1,216.86499000000185,0.19162509999296162,216.441823199988,214.9417803999968,217.4912531000009,217.4912531000009,216.69122609999613,,,,,,,,01,01,0.25,20,10,10,20,2024-10-29_11h37.28.440,vibrotactile_experiment_test,2024.1.1,None,2024-10-29 11h41.46.009143 +0000,
Visual Only,5.0,right,7,7,77,5,217.4912531000009,,,,,,,,,,,,,217.47829149999598,217.4912531000009,217.72807589999866,217.72810519998893,217.7430244999996,219.2437787999952,219.24379339998995,219.2585706999962,219.4793154999934,219.47937089999323,219.49261149999802,219.49261149999802,220.27648359999876,right,1,219.7769774999906,0.1516237000032561,,217.7430244999996,,,,,,,,,,,01,01,0.25,20,10,10,20,2024-10-29_11h37.28.440,vibrotactile_experiment_test,2024.1.1,None,2024-10-29 11h41.46.009143 +0000,
Visual Only,0.0,right,7,8,78,9,220.29151009999623,,,,,,,,,,,,,220.2770443999907,220.29151009999623,220.52975159999914,220.52976609999314,220.54124639999645,222.02718039999309,222.02720070000214,222.04196969998884,222.27979149999737,222.27980599999137,222.2911798999994,222.2911798999994,223.07711099999142,left,0,222.66505089998827,0.19996480000554584,,,223.0919900000008,223.0919900000008,,,,,,,,,01,01,0.25,20,10,10,20,2024-10-29_11h37.28.440,vibrotactile_experiment_test,2024.1.1,None,2024-10-29 11h41.46.009143 +0000,
Visual Only,0.0,left,7,9,79,8,223.0919900000008,,,,,,,,,,,,,223.07770559999335,223.0919900000008,223.3296291000006,223.32964659998834,223.34478109999327,224.84277889999794,224.84279460000107,224.85861479998857,225.0774073999928,225.07745640000212,225.09235120000085,225.09235120000085,225.86352569999872,left,1,225.39252579999447,0.15999909999663942,,,,,,,,,,,,,01,01,0.25,20,10,10,20,2024-10-29_11h37.28.440,vibrotactile_experiment_test,2024.1.1,None,2024-10-29 11h41.46.009143 +0000,
Visual Only,0.0,left,8,0,80,8,225.87562479999906,,,,,,,,,,,,,225.86429189999762,225.87562479999906,226.11130299999786,226.11132289998932,226.1278758999979,227.62726949999342,227.62728439999046,227.64173949998803,227.84926180000184,227.84928399999626,227.85940659999324,227.85940659999324,228.6441424999939,left,1,228.16034849999414,0.151801300002262,,226.1278758999979,228.65796409999894,228.65796409999894,,,,,,,,,01,01,0.25,20,10,10,20,2024-10-29_11h37.28.440,vibrotactile_experiment_test,2024.1.1,None,2024-10-29 11h41.46.009143 +0000,
Visual Only,10.0,right,8,1,81,1,228.65796409999894,,,,,,,,,,,,,228.64472149999347,228.65796409999894,228.89438299999165,228.89440179998928,228.90815789999033,230.3936102000007,230.39363029999367,230.40875139999844,230.64405999999144,230.64408349999576,230.6615984999953,230.6615984999953,231.4440373999969,right,1,230.92858680000063,0.16088489998946898,230.40875139999844,228.90815789999033,,,230.6615984999953,,,,,,,,01,01,0.25,20,10,10,20,2024-10-29_11h37.28.440,vibrotactile_experiment_test,2024.1.1,None,2024-10-29 11h41.46.009143 +0000,
Visual Only,2.5,right,8,2,82,7,231.46114809998835,,,,,,,,,,,,,231.44462080000085,231.46114809998835,231.70933729999524,231.70935389999067,231.72495730000082,233.21024079999188,233.2102562999935,233.2280286999885,233.4448842999991,233.4449106999964,233.4607845999999,233.4607845999999,234.24387510000088,right,1,233.78424470000027,0.16018619999522343,,,,,,,,,,,,,01,01,0.25,20,10,10,20,2024-10-29_11h37.28.440,vibrotactile_experiment_test,2024.1.1,None,2024-10-29 11h41.46.009143 +0000,
Visual Only,-5.0,left,8,3,83,4,234.25849699998798,,,,,,,,,,,,,234.2444303999946,234.25849699998798,234.49374649999663,234.49376669999037,234.50801979999233,235.99394590000156,235.9939880999882,236.00821099999303,236.24430929998925,236.24432800000068,236.2587324999913,236.2587324999913,237.04393469999195,left,1,236.44075019999582,0.16831860000093002,236.00821099999303,234.50801979999233,237.0590927000012,237.0590927000012,236.2587324999913,,,,,,,,01,01,0.25,20,10,10,20,2024-10-29_11h37.28.440,vibrotactile_experiment_test,2024.1.1,None,2024-10-29 11h41.46.009143 +0000,
Visual Only,-7.5,left,8,4,84,2,237.0590927000012,,,,,,,,,,,,,237.04449549999845,237.0590927000012,237.29447329998948,237.2944887999911,237.30806169999414,238.7960779999994,238.79609360000177,238.80895489999966,239.04412330000196,239.04415169999993,239.05876780000108,239.05876780000108,239.84427409998898,left,1,239.28200719998858,0.1833970000006957,,237.30806169999414,,,239.05876780000108,,,,,,,,01,01,0.25,20,10,10,20,2024-10-29_11h37.28.440,vibrotactile_experiment_test,2024.1.1,None,2024-10-29 11h41.46.009143 +0000,
Visual Only,5.0,right,8,5,85,5,239.85868079999636,,,,,,,,,,,,,239.84489490000124,239.85868079999636,240.09357869999076,240.0935979999922,240.10855669999728,241.5933803999942,241.59340209999937,241.6086920999951,241.84439179999754,241.84441189999052,241.8580823999946,241.8580823999946,242.64416689999052,right,1,242.07282580000174,0.17576399999961723,241.6086920999951,240.10855669999728,242.65852549999545,242.65852549999545,,,,,,,,,01,01,0.25,20,10,10,20,2024-10-29_11h37.28.440,vibrotactile_experiment_test,2024.1.1,None,2024-10-29 11h41.46.009143 +0000,
Visual Only,0.0,right,8,6,86,9,242.65852549999545,,,,,,,,,,,,,242.64467879998847,242.65852549999545,242.89390509999066,242.8939226999937,242.90787019999698,244.3946980999899,244.39471269999922,244.412058899994,244.6333617999917,244.6333861000021,244.64306399998895,244.64306399998895,245.4284381999896,left,0,244.98503979999805,0.17535720000159927,,242.90787019999698,245.4429967999895,245.4429967999895,,,,,,,,,01,01,0.25,20,10,10,20,2024-10-29_11h37.28.440,vibrotactile_experiment_test,2024.1.1,None,2024-10-29 11h41.46.009143 +0000,
Visual Only,-2.5,left,8,7,87,6,245.4429967999895,,,,,,,,,,,,,245.42893779999577,245.4429967999895,245.67944159999024,245.6794957999955,245.69315349998942,247.19760689999384,247.19762349998928,247.20861570000125,247.42752729999484,247.42755409999518,247.4418958999886,247.4418958999886,248.21330540000054,left,1,247.69663269999728,0.16843859999789856,,,,,,,,,,,,,01,01,0.25,20,10,10,20,2024-10-29_11h37.28.440,vibrotactile_experiment_test,2024.1.1,None,2024-10-29 11h41.46.009143 +0000,
Visual Only,7.5,right,8,8,88,3,248.22661199999857,,,,,,,,,,,,,248.2138932999951,248.22661199999857,248.46268240000063,248.46269829999073,248.4795438000001,249.97886319999816,249.97888549999334,249.99341080000158,250.21074229999795,250.21077340000193,250.22845830000006,250.22845830000006,251.01087359999656,right,1,250.48104199999943,0.16731809999328107,,248.4795438000001,,,,,,,,,,,01,01,0.25,20,10,10,20,2024-10-29_11h37.28.440,vibrotactile_experiment_test,2024.1.1,None,2024-10-29 11h41.46.009143 +0000,
Visual Only,-10.0,left,8,9,89,0,251.0249932000006,,,,,,,,,,,,,251.01169629998913,251.0249932000006,251.2607544999919,251.26077209999494,251.27529539998795,252.76281449999078,252.76283979999425,252.77720939999563,253.0137601999886,253.0137764999963,253.02464589999,253.02464589999,253.79740209999727,left,1,253.1850456999964,0.1272647000005236,,251.27529539998795,,,,,,,,,,,01,01,0.25,20,10,10,20,2024-10-29_11h37.28.440,vibrotactile_experiment_test,2024.1.1,None,2024-10-29 11h41.46.009143 +0000,
Visual Only,-5.0,left,9,0,90,4,253.81279070000164,,,,,,,,,,,,,253.7980491999915,253.81279070000164,254.06018849999236,254.0602041999955,254.07553159999952,255.56117059999087,255.56118619999324,255.57666209999297,255.8003982999944,255.8004144000006,255.81179789999442,255.81179789999442,256.5939934999915,left,1,256.0562968000013,0.16076469999097753,,,,,,,,,,,,,01,01,0.25,20,10,10,20,2024-10-29_11h37.28.440,vibrotactile_experiment_test,2024.1.1,None,2024-10-29 11h41.46.009143 +0000,
Visual Only,-2.5,left,9,1,91,6,256.61118259999785,,,,,,,,,,,,,256.594832399991,256.61118259999785,256.86020439999993,256.8602197,256.8748455999885,258.3597742999991,258.3597977999889,258.3780853999924,258.5941005999921,258.59412589999556,258.6083534999925,258.6083534999925,259.3937997999892,left,1,258.9370149999886,0.18392990001302678,,,259.40844549999747,259.40844549999747,,,,,,,,,01,01,0.25,20,10,10,20,2024-10-29_11h37.28.440,vibrotactile_experiment_test,2024.1.1,None,2024-10-29 11h41.46.009143 +0000,
Visual Only,0.0,right,9,2,92,9,259.40844549999747,,,,,,,,,,,,,259.3943329999893,259.40844549999747,259.6441545999987,259.64417949999915,259.65860979999707,261.1438572999905,261.1438766999927,261.15861439998844,261.3804283999925,261.38044769999397,261.39117160000023,261.39117160000023,262.1775170999899,right,1,261.7216874000005,0.19134659999690484,261.15861439998844,259.65860979999707,262.1910640999995,262.1910640999995,,,,,,,,,01,01,0.25,20,10,10,20,2024-10-29_11h37.28.440,vibrotactile_experiment_test,2024.1.1,None,2024-10-29 11h41.46.009143 +0000,
Visual Only,0.0,left,9,3,93,8,262.1910640999995,,,,,,,,,,,,,262.1780136000016,262.1910640999995,262.42719259999285,262.4272121999966,262.44143199999235,263.9272212999931,263.9272416999884,263.94169839999813,264.17705939999723,264.1770860999968,264.19215069999336,264.19215069999336,264.9644638999889,left,1,264.4493868999998,0.16771569999400526,263.94169839999813,262.44143199999235,,,264.19215069999336,,,,,,,,01,01,0.25,20,10,10,20,2024-10-29_11h37.28.440,vibrotactile_experiment_test,2024.1.1,None,2024-10-29 11h41.46.009143 +0000,
Visual Only,7.5,right,9,4,94,3,264.9787903999968,,,,,,,,,,,,,264.96493029998965,264.9787903999968,265.2280349999928,265.2280575999903,265.2411909999937,266.7271991000016,266.72721949999686,266.7424624999985,266.96217899999465,266.9622104000009,266.97582419999526,266.97582419999526,267.76493639999535,right,1,267.2248810000019,0.13608879999083,,,,,,,,,,,,,01,01,0.25,20,10,10,20,2024-10-29_11h37.28.440,vibrotactile_experiment_test,2024.1.1,None,2024-10-29 11h41.46.009143 +0000,
Visual Only,10.0,right,9,5,95,1,267.77643169999646,,,,,,,,,,,,,267.76557419999153,267.77643169999646,268.0269569999946,268.02697140000237,268.0422622999904,269.52654359998996,269.52655889999005,269.54490259999875,269.7495023999945,269.7495239999989,269.75968329999887,269.75968329999887,270.5439650999906,right,1,269.95243419999315,0.12855219999619294,,,,,,,,,,,,,01,01,0.25,20,10,10,20,2024-10-29_11h37.28.440,vibrotactile_experiment_test,2024.1.1,None,2024-10-29 11h41.46.009143 +0000,
Visual Only,5.0,right,9,6,96,5,270.5585080000019,,,,,,,,,,,,,270.54454609999084,270.5585080000019,270.794006799988,270.7940246999933,270.80959069999517,272.30951749999076,272.3095319999993,272.3246652999951,272.5439660999982,272.543995,272.55850269999064,272.55850269999064,273.3436209999927,right,1,272.7122673999984,0.13612719999218825,,270.80959069999517,273.3578889999917,273.3578889999917,,,,,,,,,01,01,0.25,20,10,10,20,2024-10-29_11h37.28.440,vibrotactile_experiment_test,2024.1.1,None,2024-10-29 11h41.46.009143 +0000,
Visual Only,2.5,right,9,7,97,7,273.3578889999917,,,,,,,,,,,,,273.344165699993,273.3578889999917,273.5945173999935,273.59455080000043,273.6089871000004,275.0941770999925,275.09420079999836,275.10920349998923,275.34399290000147,275.34401799998886,275.357949799989,275.357949799989,276.1462498999899,right,1,275.56830099999206,0.12064120000286493,,273.6089871000004,,,275.357949799989,,,,,,,,01,01,0.25,20,10,10,20,2024-10-29_11h37.28.440,vibrotactile_experiment_test,2024.1.1,None,2024-10-29 11h41.46.009143 +0000,
Visual Only,-7.5,left,9,8,98,2,276.15811039999244,,,,,,,,,,,,,276.1467216000019,276.15811039999244,276.39359310000145,276.3936127999914,276.41093289999117,277.8965018999879,277.8965171000018,277.90826129999186,278.1438972999895,278.14392309999675,278.15793499999563,278.15793499999563,278.94386629998917,left,1,278.32026659999974,0.16892349999397993,,276.41093289999117,278.9586053999956,278.9586053999956,278.15793499999563,,,,,,,,01,01,0.25,20,10,10,20,2024-10-29_11h37.28.440,vibrotactile_experiment_test,2024.1.1,None,2024-10-29 11h41.46.009143 +0000,
Visual Only,-10.0,left,9,9,99,0,278.9586053999956,,,,,,,,,,,,,278.94442249998974,278.9586053999956,279.1933747000003,279.19339259999106,279.20829159999266,280.69342919999326,280.6934476999886,280.70850809999683,280.93004179999116,280.9300612999941,280.94156349998957,280.94156349998957,281.73026499999105,left,1,281.20921049999015,0.151706100004958,280.70850809999683,279.20829159999266,281.74302689998876,281.74302689998876,,,,,,,,,01,01,0.25,20,10,10,20,2024-10-29_11h37.28.440,vibrotactile_experiment_test,2024.1.1,None,2024-10-29 11h41.46.009143 +0000,
,,,,,,,,,,,,,,,,,,,,,,,,,,,,,,,,,,,,,,,,,,281.73062760000175,281.74302689998876,281.74302689998876,283.0944552000001,space,283.0810303999897,None,01,01,0.25,20,10,10,20,2024-10-29_11h37.28.440,vibrotactile_experiment_test,2024.1.1,None,2024-10-29 11h41.46.009143 +0000,
