cue_text,visual_stim_position,visual_stim_opacity,correct_answer,trials.thisRepN,trials.thisTrialN,trials.thisN,trials.thisIndex,thisRow.t,notes,initialisation.started,initialisation.stopped,start_experiment.started,text.started,key_resp.started,start_experiment.stopped,key_resp.keys,key_resp.rt,key_resp.duration,trigger.started,trigger.stopped,cue.started,text_3.started,cue.stopped,cue_to_target.started,text_4.started,cue_to_target.stopped,checkerboard.started,stimulus_fixation.started,grating.started,checkerboard.stopped,response_period.started,response.started,text_2.started,response_period.stopped,response.keys,response.corr,response.rt,response.duration,text_3.stopped,text_4.stopped,stimulus_fixation.stopped,grating.stopped,response.stopped,text_2.stopped,end_experiment.started,end_text.started,end_button.started,end_experiment.stopped,end_button.keys,end_button.rt,end_button.duration,participant,run,trial_duration,standard_vibration_freq,target_vibration_diff,standard_checkerboard_freq,high_checkerboard_freq,date,expName,psychopyVersion,frameRate,expStart
,,,,,,,,,,0.0828733,0.0833641,,,,,,,,,,,,,,,,,,,,,,,,,,,,,,,,,,,,,,,,,1,1,0.25,20,10,10,20,2024-10-29_11h08.28.879,vibrotactile_experiment_test,2024.1.1,None,2024-10-29 11h08.50.588358 +0000
,,,,,,,,,,,,0.0833857,0.0961595,0.0961595,6.9111194,space,6.8972257,None,,,,,,,,,,,,,,,,,,,,,,,,,,,,,,,,,,1,1,0.25,20,10,10,20,2024-10-29_11h08.28.879,vibrotactile_experiment_test,2024.1.1,None,2024-10-29 11h08.50.588358 +0000
,,,,,,,,,,,,,,,,,,,6.9111501,6.9113265,,,,,,,,,,,,,,,,,,,,,,,,,,,,,,,,1,1,0.25,20,10,10,20,2024-10-29_11h08.28.879,vibrotactile_experiment_test,2024.1.1,None,2024-10-29 11h08.50.588358 +0000
Visual Only,-0.5,0.25,left,0,0,0,6,6.9379702,,,,,,,,,,,,,6.9159716,6.9379702,7.1730889,7.1731043,7.1914196,8.6730538,8.6730689,8.6885812,8.6885812,8.9081034,8.9081266,8.9217345,8.9217345,9.6945834,left,1,9.2326526,0.1926236,,,,,,,,,,,,,,1,1,0.25,20,10,10,20,2024-10-29_11h08.28.879,vibrotactile_experiment_test,2024.1.1,None,2024-10-29 11h08.50.588358 +0000
Visual Only,0.5,1,right,0,1,1,1,9.7058341,,,,,,,,,,,,,9.6953624,9.7058341,9.944158,9.9441731,9.9554398,11.4404208,11.4404355,11.4552955,11.4552955,11.6907464,11.690764,11.7049636,11.7049636,12.4908088,right,1,11.9928896,0.1523065,9.9554398,11.4552955,11.7049636,11.7049636,,,,,,,,,,1,1,0.25,20,10,10,20,2024-10-29_11h08.28.879,vibrotactile_experiment_test,2024.1.1,None,2024-10-29 11h08.50.588358 +0000
Visual Only,-0.5,0.1,left,0,2,2,8,12.5056026,,,,,,,,,,,,,12.4913002,12.5056026,12.7412926,12.7413128,12.7551603,14.2416281,14.2416724,14.2569252,14.2569252,14.4909075,14.4909359,14.5051867,14.5051867,15.2905334,left,1,14.8648105,0.1918666,,,,,15.3080306,15.3080306,,,,,,,,1,1,0.25,20,10,10,20,2024-10-29_11h08.28.879,vibrotactile_experiment_test,2024.1.1,None,2024-10-29 11h08.50.588358 +0000
Visual Only,0.5,0.5,right,0,3,3,5,15.3080306,,,,,,,,,,,,,15.2910497,15.3080306,15.5570098,15.5570316,15.5717429,17.0569799,17.0569945,17.0720831,17.0720831,17.2758756,17.2759011,17.2887368,17.2887368,18.0738638,right,1,17.656558,0.1683371,,,,,18.08856,18.08856,,,,,,,,1,1,0.25,20,10,10,20,2024-10-29_11h08.28.879,vibrotactile_experiment_test,2024.1.1,None,2024-10-29 11h08.50.588358 +0000
Visual Only,0.5,0.1,right,0,4,4,9,18.08856,,,,,,,,,,,,,18.0743897,18.08856,18.3245464,18.3245832,18.3387089,19.8236442,19.823664,19.8383722,19.8383722,20.061199,20.0612185,20.0740531,20.0740531,20.857106,right,1,20.5047502,0.2080228,18.3387089,19.8383722,,,,,,,,,,,,1,1,0.25,20,10,10,20,2024-10-29_11h08.28.879,vibrotactile_experiment_test,2024.1.1,None,2024-10-29 11h08.50.588358 +0000
Visual Only,0.5,0.75,right,0,5,5,3,20.8730899,,,,,,,,,,,,,20.8579469,20.8730899,21.1238386,21.123853,21.1382691,22.6240125,22.624028,22.6393187,22.6393187,22.8572003,22.8572271,22.8723845,22.8723845,23.657029,right,1,23.5204455,None,,,,,23.6717273,23.6717273,,,,,,,,1,1,0.25,20,10,10,20,2024-10-29_11h08.28.879,vibrotactile_experiment_test,2024.1.1,None,2024-10-29 11h08.50.588358 +0000
Visual Only,-0.5,0.5,left,0,6,6,4,23.6717273,,,,,,,,,,,,,23.657723,23.6717273,23.9079456,23.9079885,23.9219549,25.4067532,25.4067678,25.4218192,25.4218192,25.6577466,25.6577684,25.6718301,25.6718301,26.457145,left,1,26.0253069,0.1677756,,25.4218192,25.6718301,25.6718301,26.4720077,26.4720077,,,,,,,,1,1,0.25,20,10,10,20,2024-10-29_11h08.28.879,vibrotactile_experiment_test,2024.1.1,None,2024-10-29 11h08.50.588358 +0000
Visual Only,0.5,0.25,right,0,7,7,7,26.4720077,,,,,,,,,,,,,26.4576745,26.4720077,26.7076916,26.7077102,26.7217594,28.2093234,28.2093668,28.2235418,28.2235418,28.4571344,28.4571568,28.4715728,28.4715728,29.2423797,right,1,28.8167864,0.1518528,26.7217594,,,,,,,,,,,,,1,1,0.25,20,10,10,20,2024-10-29_11h08.28.879,vibrotactile_experiment_test,2024.1.1,None,2024-10-29 11h08.50.588358 +0000
Visual Only,-0.5,1,left,0,8,8,0,29.2564543,,,,,,,,,,,,,29.2431755,29.2564543,29.5072063,29.5072264,29.5216151,31.0068725,31.0068878,31.022138,31.022138,31.2281874,31.2282078,31.2399072,31.2399072,32.0239748,left,1,31.6164869,0.1845229,,,,,,,,,,,,,,1,1,0.25,20,10,10,20,2024-10-29_11h08.28.879,vibrotactile_experiment_test,2024.1.1,None,2024-10-29 11h08.50.588358 +0000
Visual Only,-0.5,0.75,left,0,9,9,2,32.0382794,,,,,,,,,,,,,32.0245938,32.0382794,32.2739658,32.2739838,32.2890665,33.7738118,33.7738271,33.7886744,33.7886744,34.0245805,34.0246022,34.038551,34.038551,34.8233745,left,1,34.4565015,0.2000676,32.2890665,33.7886744,34.038551,34.038551,34.8385348,34.8385348,,,,,,,,1,1,0.25,20,10,10,20,2024-10-29_11h08.28.879,vibrotactile_experiment_test,2024.1.1,None,2024-10-29 11h08.50.588358 +0000
Visual Only,0.5,0.1,right,1,0,10,9,34.8385348,,,,,,,,,,,,,34.8238894,34.8385348,35.0738806,35.0739037,35.0882451,36.5736776,36.5736933,36.5879324,36.5879324,36.8238981,36.8239157,36.8384582,36.8384582,37.6238653,right,1,37.2973934,0.1914554,,36.5879324,36.8384582,36.8384582,37.6385473,37.6385473,,,,,,,,1,1,0.25,20,10,10,20,2024-10-29_11h08.28.879,vibrotactile_experiment_test,2024.1.1,None,2024-10-29 11h08.50.588358 +0000
Visual Only,-0.5,1,left,1,1,11,0,37.6385473,,,,,,,,,,,,,37.6243694,37.6385473,37.8752197,37.8752759,37.8890823,39.3763737,39.3764115,39.3884818,39.3884818,39.6244818,39.6245081,39.6386354,39.6386354,40.4117704,left,1,40.0647783,0.168237,,,39.6386354,39.6386354,,,,,,,,,,1,1,0.25,20,10,10,20,2024-10-29_11h08.28.879,vibrotactile_experiment_test,2024.1.1,None,2024-10-29 11h08.50.588358 +0000
Visual Only,-0.5,0.5,left,1,2,12,4,40.4226137,,,,,,,,,,,,,40.4122219,40.4226137,40.656925,40.6569396,40.6720623,42.1574194,42.1574338,42.171834,42.171834,42.4105873,42.4106056,42.4224027,42.4224027,43.2093439,left,1,42.7537243,0.1589185,40.6720623,42.171834,42.4224027,42.4224027,43.2266772,43.2266772,,,,,,,,1,1,0.25,20,10,10,20,2024-10-29_11h08.28.879,vibrotactile_experiment_test,2024.1.1,None,2024-10-29 11h08.50.588358 +0000
Visual Only,-0.5,0.1,left,1,3,13,8,43.2266772,,,,,,,,,,,,,43.2101021,43.2266772,43.4741374,43.4741569,43.4887222,44.973375,44.9734002,44.9889824,44.9889824,45.2096515,45.2096854,45.2237425,45.2237425,46.0071235,left,1,45.5128486,0.1675659,,,,,,,,,,,,,,1,1,0.25,20,10,10,20,2024-10-29_11h08.28.879,vibrotactile_experiment_test,2024.1.1,None,2024-10-29 11h08.50.588358 +0000
Visual Only,0.5,0.75,right,1,4,14,3,46.0215819,,,,,,,,,,,,,46.0076819,46.0215819,46.2590879,46.25913,46.2730183,47.7732254,47.7732412,47.7887841,47.7887841,48.0073523,48.0073755,48.0218163,48.0218163,48.8069123,right,1,48.2971087,0.1842002,,,,,48.8220454,48.8220454,,,,,,,,1,1,0.25,20,10,10,20,2024-10-29_11h08.28.879,vibrotactile_experiment_test,2024.1.1,None,2024-10-29 11h08.50.588358 +0000
Visual Only,0.5,0.5,right,1,5,15,5,48.8220454,,,,,,,,,,,,,48.8074386,48.8220454,49.0571091,49.0571278,49.0722866,50.5572801,50.5572968,50.5720414,50.5720414,50.8072468,50.8072727,50.8215413,50.8215413,51.6070895,right,1,51.1212583,0.1756763,49.0722866,50.5720414,50.8215413,50.8215413,51.6223773,51.6223773,,,,,,,,1,1,0.25,20,10,10,20,2024-10-29_11h08.28.879,vibrotactile_experiment_test,2024.1.1,None,2024-10-29 11h08.50.588358 +0000
Visual Only,0.5,1,right,1,6,16,1,51.6223773,,,,,,,,,,,,,51.6076068,51.6223773,51.8568379,51.8568528,51.8721809,53.3569541,53.3569715,53.3724942,53.3724942,53.5930156,53.5930345,53.6052747,53.6052747,54.3931509,right,1,53.8168602,0.1681485,51.8721809,53.3724942,,,54.4048278,54.4048278,,,,,,,,1,1,0.25,20,10,10,20,2024-10-29_11h08.28.879,vibrotactile_experiment_test,2024.1.1,None,2024-10-29 11h08.50.588358 +0000
Visual Only,-0.5,0.75,left,1,7,17,2,54.4048278,,,,,,,,,,,,,54.3936081,54.4048278,54.6405307,54.6405468,54.6556423,56.1404895,56.1405056,56.1566257,56.1566257,56.3903167,56.3903373,56.4048762,56.4048762,57.1906399,left,1,56.6164616,0.2000558,54.6556423,56.1566257,,,,,,,,,,,,1,1,0.25,20,10,10,20,2024-10-29_11h08.28.879,vibrotactile_experiment_test,2024.1.1,None,2024-10-29 11h08.50.588358 +0000
Visual Only,0.5,0.25,right,1,8,18,7,57.2062731,,,,,,,,,,,,,57.191223,57.2062731,57.4571568,57.4571724,57.4723179,58.9432462,58.9432608,58.9551906,58.9551906,59.1914632,59.1915153,59.2067807,59.2067807,59.9902823,right,1,59.3689051,0.1522074,,,,,,,,,,,,,,1,1,0.25,20,10,10,20,2024-10-29_11h08.28.879,vibrotactile_experiment_test,2024.1.1,None,2024-10-29 11h08.50.588358 +0000
Visual Only,-0.5,0.25,left,1,9,19,6,60.0049378,,,,,,,,,,,,,59.9908321,60.0049378,60.2424005,60.242448,60.256216,61.7569791,61.7570029,61.7722109,61.7722109,61.9903479,61.9903708,62.004876,62.004876,62.7906677,left,1,62.2086294,0.1601841,,,,,,,,,,,,,,1,1,0.25,20,10,10,20,2024-10-29_11h08.28.879,vibrotactile_experiment_test,2024.1.1,None,2024-10-29 11h08.50.588358 +0000
Visual Only,-0.5,0.75,left,2,0,20,2,62.8053984,,,,,,,,,,,,,62.7912223,62.8053984,63.0405507,63.040568,63.0553524,64.5431664,64.543181,64.5551995,64.5551995,64.7774992,64.777519,64.7884631,64.7884631,65.5766914,left,1,65.0495513,0.1832074,63.0553524,,,,65.588443,65.588443,,,,,,,,1,1,0.25,20,10,10,20,2024-10-29_11h08.28.879,vibrotactile_experiment_test,2024.1.1,None,2024-10-29 11h08.50.588358 +0000
Visual Only,-0.5,1,left,2,1,21,0,65.588443,,,,,,,,,,,,,65.5771413,65.588443,65.8243519,65.8243702,65.8385457,67.323698,67.3237153,67.3385915,67.3385915,67.5740035,67.5740218,67.5884903,67.5884903,68.3739956,left,1,67.8332838,0.1753001,65.8385457,67.3385915,67.5884903,67.5884903,68.3914349,68.3914349,,,,,,,,1,1,0.25,20,10,10,20,2024-10-29_11h08.28.879,vibrotactile_experiment_test,2024.1.1,None,2024-10-29 11h08.50.588358 +0000
Visual Only,0.5,1,right,2,2,22,1,68.3914349,,,,,,,,,,,,,68.374537,68.3914349,68.640355,68.6403699,68.6556846,70.1252015,70.1252456,70.1390563,70.1390563,70.3607548,70.3607764,70.3718006,70.3718006,71.1571029,right,1,70.6086138,0.2326686,,,,,71.1719956,71.1719956,,,,,,,,1,1,0.25,20,10,10,20,2024-10-29_11h08.28.879,vibrotactile_experiment_test,2024.1.1,None,2024-10-29 11h08.50.588358 +0000
Visual Only,0.5,0.5,right,2,3,23,5,71.1719956,,,,,,,,,,,,,71.1576197,71.1719956,71.4071254,71.4071597,71.4215439,72.9074832,72.9074977,72.9219004,72.9219004,73.1576875,73.1577108,73.1717431,73.1717431,73.957132,right,1,73.4421644,0.1823815,71.4215439,72.9219004,73.1717431,73.1717431,73.971695,73.971695,,,,,,,,1,1,0.25,20,10,10,20,2024-10-29_11h08.28.879,vibrotactile_experiment_test,2024.1.1,None,2024-10-29 11h08.50.588358 +0000
Visual Only,0.5,0.75,right,2,4,24,3,73.971695,,,,,,,,,,,,,73.9576434,73.971695,74.2093285,74.2093743,74.2232606,75.7095094,75.7095246,75.7218394,75.7218394,75.960102,75.9601189,75.9715716,75.9715716,76.7571047,right,1,76.168461,0.1684712,,,,,76.7720378,76.7720378,,,,,,,,1,1,0.25,20,10,10,20,2024-10-29_11h08.28.879,vibrotactile_experiment_test,2024.1.1,None,2024-10-29 11h08.50.588358 +0000
Visual Only,0.5,0.1,right,2,5,25,9,76.7720378,,,,,,,,,,,,,76.757659,76.7720378,77.0070099,77.0070286,77.0244321,78.5280552,78.5280715,78.538989,78.538989,78.7575004,78.7575264,78.7720187,78.7720187,79.5573093,right,1,79.1538689,0.1911433,77.0244321,,,,79.5715638,79.5715638,,,,,,,,1,1,0.25,20,10,10,20,2024-10-29_11h08.28.879,vibrotactile_experiment_test,2024.1.1,None,2024-10-29 11h08.50.588358 +0000
Visual Only,-0.5,0.5,left,2,6,26,4,79.5715638,,,,,,,,,,,,,79.5578223,79.5715638,79.8073506,79.8073682,79.8217782,81.3069382,81.3069536,81.3247227,81.3247227,81.5440418,81.5440609,81.5552443,81.5552443,82.3405524,left,1,81.7451889,0.1759517,79.8217782,81.3247227,,,82.3552282,82.3552282,,,,,,,,1,1,0.25,20,10,10,20,2024-10-29_11h08.28.879,vibrotactile_experiment_test,2024.1.1,None,2024-10-29 11h08.50.588358 +0000
Visual Only,0.5,0.25,right,2,7,27,7,82.3552282,,,,,,,,,,,,,82.3410772,82.3552282,82.5899987,82.5900123,82.6054757,84.0904855,84.0905034,84.1051062,84.1051062,84.3408771,84.3409217,84.3550799,84.3550799,85.1404038,right,1,84.64894,0.1517349,82.6054757,84.1051062,84.3550799,84.3550799,85.1550749,85.1550749,,,,,,,,1,1,0.25,20,10,10,20,2024-10-29_11h08.28.879,vibrotactile_experiment_test,2024.1.1,None,2024-10-29 11h08.50.588358 +0000
Visual Only,-0.5,0.1,left,2,8,28,8,85.1550749,,,,,,,,,,,,,85.140911,85.1550749,85.3902461,85.3902641,85.4053791,86.8905246,86.8905406,86.9058796,86.9058796,87.1402631,87.1402818,87.1584958,87.1584958,87.9433464,left,1,87.4407835,0.1843449,85.4053791,86.9058796,87.1584958,87.1584958,,,,,,,,,,1,1,0.25,20,10,10,20,2024-10-29_11h08.28.879,vibrotactile_experiment_test,2024.1.1,None,2024-10-29 11h08.50.588358 +0000
Visual Only,-0.5,0.25,left,2,9,29,6,87.9550859,,,,,,,,,,,,,87.9437986,87.9550859,88.1906251,88.1906463,88.2064206,89.690394,89.6904095,89.7052427,89.7052427,89.9404297,89.9404481,89.9585518,89.9585518,90.7272201,left,1,90.201045,0.152827,88.2064206,,89.9585518,89.9585518,,,,,,,,,,1,1,0.25,20,10,10,20,2024-10-29_11h08.28.879,vibrotactile_experiment_test,2024.1.1,None,2024-10-29 11h08.50.588358 +0000
Visual Only,-0.5,0.1,left,3,0,30,8,90.7384199,,,,,,,,,,,,,90.7276813,90.7384199,90.9738807,90.9738941,90.9888753,92.4739198,92.4739347,92.4889427,92.4889427,92.7240009,92.7240227,92.7385419,92.7385419,93.5256993,left,1,93.4167882,None,90.9888753,92.4889427,92.7385419,92.7385419,,,,,,,,,,1,1,0.25,20,10,10,20,2024-10-29_11h08.28.879,vibrotactile_experiment_test,2024.1.1,None,2024-10-29 11h08.50.588358 +0000
Visual Only,-0.5,0.25,left,3,1,31,6,93.5387838,,,,,,,,,,,,,93.5266145,93.5387838,93.7741143,93.7741339,93.7886415,95.2783289,95.2783482,95.2886335,95.2886335,95.5241956,95.5242199,95.5397707,95.5397707,96.3236196,left,1,96.0490008,0.1838279,93.7886415,,,,,,,,,,,,,1,1,0.25,20,10,10,20,2024-10-29_11h08.28.879,vibrotactile_experiment_test,2024.1.1,None,2024-10-29 11h08.50.588358 +0000
Visual Only,0.5,0.5,right,3,2,32,5,96.3385553,,,,,,,,,,,,,96.3241727,96.3385553,96.5781133,96.5781287,96.5882882,98.077665,98.0776797,98.088631,98.088631,98.3126827,98.3127051,98.3252063,98.3252063,99.1078493,right,1,99.0169136,None,,,,,,,,,,,,,,1,1,0.25,20,10,10,20,2024-10-29_11h08.28.879,vibrotactile_experiment_test,2024.1.1,None,2024-10-29 11h08.50.588358 +0000
Visual Only,0.5,1,right,3,3,33,1,99.1218981,,,,,,,,,,,,,99.1084137,99.1218981,99.3576488,99.3576702,99.3720677,100.8573564,100.8573811,100.8719933,100.8719933,101.1075708,101.1075885,101.1224163,101.1224163,101.9071248,right,1,101.4889472,0.1602891,99.3720677,100.8719933,101.1224163,101.1224163,101.9224292,101.9224292,,,,,,,,1,1,0.25,20,10,10,20,2024-10-29_11h08.28.879,vibrotactile_experiment_test,2024.1.1,None,2024-10-29 11h08.50.588358 +0000
Visual Only,-0.5,1,left,3,4,34,0,101.9224292,,,,,,,,,,,,,101.9077194,101.9224292,102.1574967,102.1575161,102.1721058,103.6576823,103.6576971,103.672665,103.672665,103.9071403,103.9071629,103.9219878,103.9219878,104.7075142,left,1,104.2011588,0.1594178,102.1721058,,103.9219878,103.9219878,,,,,,,,,,1,1,0.25,20,10,10,20,2024-10-29_11h08.28.879,vibrotactile_experiment_test,2024.1.1,None,2024-10-29 11h08.50.588358 +0000
Visual Only,-0.5,0.75,left,3,5,35,2,104.7224402,,,,,,,,,,,,,104.7080386,104.7224402,104.9604776,104.960493,104.9722953,106.4596385,106.4596531,106.4721987,106.4721987,106.7072718,106.7072961,106.7221933,106.7221933,107.5073994,left,1,106.9771155,0.1601619,,,106.7221933,106.7221933,107.5220921,107.5220921,,,,,,,,1,1,0.25,20,10,10,20,2024-10-29_11h08.28.879,vibrotactile_experiment_test,2024.1.1,None,2024-10-29 11h08.50.588358 +0000
Visual Only,0.5,0.25,right,3,6,36,7,107.5220921,,,,,,,,,,,,,107.5079582,107.5220921,107.7574596,107.7574774,107.7718558,109.259202,109.2592484,109.2724741,109.2724741,109.5072916,109.5073144,109.5225369,109.5225369,110.3073395,right,1,109.649289,0.1518362,107.7718558,,109.5225369,109.5225369,110.3223652,110.3223652,,,,,,,,1,1,0.25,20,10,10,20,2024-10-29_11h08.28.879,vibrotactile_experiment_test,2024.1.1,None,2024-10-29 11h08.50.588358 +0000
Visual Only,-0.5,0.5,left,3,7,37,4,110.3223652,,,,,,,,,,,,,110.3079014,110.3223652,110.5573534,110.5573728,110.5718108,112.0572249,112.0572401,112.0720482,112.0720482,112.3072042,112.3072299,112.3217065,112.3217065,113.1075223,left,1,112.5214189,0.1677209,110.5718108,112.0720482,112.3217065,112.3217065,113.1220476,113.1220476,,,,,,,,1,1,0.25,20,10,10,20,2024-10-29_11h08.28.879,vibrotactile_experiment_test,2024.1.1,None,2024-10-29 11h08.50.588358 +0000
Visual Only,0.5,0.1,right,3,8,38,9,113.1220476,,,,,,,,,,,,,113.1080936,113.1220476,113.3582678,113.3582824,113.3719981,114.8580599,114.8580811,114.8722644,114.8722644,115.1104672,115.1104844,115.1221988,115.1221988,115.9105724,right,1,115.2488967,0.1355566,113.3719981,,,,,,,,,,,,,1,1,0.25,20,10,10,20,2024-10-29_11h08.28.879,vibrotactile_experiment_test,2024.1.1,None,2024-10-29 11h08.50.588358 +0000
Visual Only,0.5,0.75,right,3,9,39,3,115.9216952,,,,,,,,,,,,,115.9110272,115.9216952,116.1574042,116.1574313,116.1722321,117.657438,117.6574594,117.6719273,117.6719273,117.9075816,117.907605,117.9217052,117.9217052,118.7071618,right,1,118.1687264,0.1685286,116.1722321,117.6719273,117.9217052,117.9217052,118.7218816,118.7218816,,,,,,,,1,1,0.25,20,10,10,20,2024-10-29_11h08.28.879,vibrotactile_experiment_test,2024.1.1,None,2024-10-29 11h08.50.588358 +0000
Visual Only,0.5,0.1,right,4,0,40,9,118.7218816,,,,,,,,,,,,,118.7077013,118.7218816,118.9574928,118.9575165,118.9723744,120.4573907,120.4574102,120.4723935,120.4723935,120.6936625,120.6936819,120.7055234,120.7055234,121.4910147,right,1,121.0812161,0.1681031,118.9723744,120.4723935,,,121.5056511,121.5056511,,,,,,,,1,1,0.25,20,10,10,20,2024-10-29_11h08.28.879,vibrotactile_experiment_test,2024.1.1,None,2024-10-29 11h08.50.588358 +0000
Visual Only,-0.5,0.1,left,4,1,41,8,121.5056511,,,,,,,,,,,,,121.4915431,121.5056511,121.7404893,121.7405098,121.7555051,123.2421797,123.2422221,123.2566088,123.2566088,123.4907388,123.4907606,123.5053184,123.5053184,124.2781702,left,1,123.7771332,0.1914151,121.7555051,,,,,,,,,,,,,1,1,0.25,20,10,10,20,2024-10-29_11h08.28.879,vibrotactile_experiment_test,2024.1.1,None,2024-10-29 11h08.50.588358 +0000
Visual Only,0.5,0.5,right,4,2,42,5,124.2888066,,,,,,,,,,,,,124.2786448,124.2888066,124.5242806,124.5243169,124.5416657,126.0407319,126.0407475,126.0558025,126.0558025,126.2754241,126.2754742,126.2929221,126.2929221,127.0739019,right,1,126.5764176,0.1775319,124.5416657,,,,,,,,,,,,,1,1,0.25,20,10,10,20,2024-10-29_11h08.28.879,vibrotactile_experiment_test,2024.1.1,None,2024-10-29 11h08.50.588358 +0000
Visual Only,0.5,0.75,right,4,3,43,3,127.091147,,,,,,,,,,,,,127.0744609,127.091147,127.3401271,127.3401427,127.3554385,128.8403544,128.8403693,128.8555898,128.8555898,129.0745772,129.0745999,129.0884516,129.0884516,129.8747294,right,1,129.4084661,0.1767006,,,,,129.8893345,129.8893345,,,,,,,,1,1,0.25,20,10,10,20,2024-10-29_11h08.28.879,vibrotactile_experiment_test,2024.1.1,None,2024-10-29 11h08.50.588358 +0000
Visual Only,-0.5,1,left,4,4,44,0,129.8893345,,,,,,,,,,,,,129.8756046,129.8893345,130.1243794,130.1244005,130.1420395,131.6403439,131.6403588,131.6551611,131.6551611,131.8737112,131.8737377,131.891706,131.891706,132.6739291,left,1,132.1689085,0.1755984,130.1420395,,,,,,,,,,,,,1,1,0.25,20,10,10,20,2024-10-29_11h08.28.879,vibrotactile_experiment_test,2024.1.1,None,2024-10-29 11h08.50.588358 +0000
Visual Only,-0.5,0.75,left,4,5,45,2,132.6891111,,,,,,,,,,,,,132.6744951,132.6891111,132.9238635,132.9238818,132.9387504,134.4238472,134.4238612,134.439253,134.439253,134.6745955,134.6746129,134.6915938,134.6915938,135.4744517,left,1,135.1223856,0.150198,132.9387504,134.439253,134.6915938,134.6915938,,,,,,,,,,1,1,0.25,20,10,10,20,2024-10-29_11h08.28.879,vibrotactile_experiment_test,2024.1.1,None,2024-10-29 11h08.50.588358 +0000
Visual Only,-0.5,0.25,left,4,6,46,6,135.4891153,,,,,,,,,,,,,135.4749604,135.4891153,135.7245344,135.7245524,135.7385005,137.2251278,137.2251556,137.239834,137.239834,137.4746301,137.4746552,137.4888482,137.4888482,138.2750009,left,1,137.7773152,0.1833605,135.7385005,,137.4888482,137.4888482,138.2884229,138.2884229,,,,,,,,1,1,0.25,20,10,10,20,2024-10-29_11h08.28.879,vibrotactile_experiment_test,2024.1.1,None,2024-10-29 11h08.50.588358 +0000
Visual Only,0.5,0.25,right,4,7,47,7,138.2884229,,,,,,,,,,,,,138.2754995,138.2884229,138.5244214,138.5244374,138.5391927,140.0245292,140.0245528,140.0386267,140.0386267,140.2747218,140.2747412,140.2918359,140.2918359,141.0744666,right,1,140.5450286,0.1678503,138.5391927,140.0386267,140.2918359,140.2918359,,,,,,,,,,1,1,0.25,20,10,10,20,2024-10-29_11h08.28.879,vibrotactile_experiment_test,2024.1.1,None,2024-10-29 11h08.50.588358 +0000
Visual Only,0.5,1,right,4,8,48,1,141.0885622,,,,,,,,,,,,,141.0749662,141.0885622,141.3241338,141.324153,141.3389653,142.8236757,142.8236961,142.8391233,142.8391233,143.0748175,143.0748391,143.0884396,143.0884396,143.8602576,right,1,143.3451449,0.2087007,141.3389653,142.8391233,143.0884396,143.0884396,,,,,,,,,,1,1,0.25,20,10,10,20,2024-10-29_11h08.28.879,vibrotactile_experiment_test,2024.1.1,None,2024-10-29 11h08.50.588358 +0000
Visual Only,-0.5,0.5,left,4,9,49,4,143.8720393,,,,,,,,,,,,,143.8607078,143.8720393,144.1072614,144.1073117,144.1221455,145.6103097,145.6103242,145.6222226,145.6222226,145.857745,145.8577671,145.871656,145.871656,146.6578311,left,1,146.0732598,0.1757337,144.1221455,145.6222226,145.871656,145.871656,,,,,,,,,,1,1,0.25,20,10,10,20,2024-10-29_11h08.28.879,vibrotactile_experiment_test,2024.1.1,None,2024-10-29 11h08.50.588358 +0000
Visual Only,-0.5,0.25,left,5,0,50,6,146.6722532,,,,,,,,,,,,,146.6583634,146.6722532,146.9072422,146.9072619,146.9217125,148.4079979,148.4080167,148.424792,148.424792,148.6576615,148.6576879,148.6716955,148.6716955,149.4577184,left,1,148.969282,0.1593314,146.9217125,148.424792,,,149.4721886,149.4721886,,,,,,,,1,1,0.25,20,10,10,20,2024-10-29_11h08.28.879,vibrotactile_experiment_test,2024.1.1,None,2024-10-29 11h08.50.588358 +0000
Visual Only,-0.5,1,left,5,1,51,0,149.4721886,,,,,,,,,,,,,149.4582479,149.4721886,149.7099571,149.7099719,149.7219409,151.2101831,151.2102216,151.2263329,151.2263329,151.460746,151.4607619,151.4726642,151.4726642,152.2435539,left,1,151.7213426,0.1832414,,,,,,,,,,,,,,1,1,0.25,20,10,10,20,2024-10-29_11h08.28.879,vibrotactile_experiment_test,2024.1.1,None,2024-10-29 11h08.50.588358 +0000
Visual Only,-0.5,0.1,left,5,2,52,8,152.2564899,,,,,,,,,,,,,152.2440387,152.2564899,152.5074379,152.5074527,152.5223242,154.0074694,154.0074937,154.0227872,154.0227872,154.242814,154.2428384,154.2568651,154.2568651,155.0408141,left,1,154.5930318,0.1760028,,,,,,,,,,,,,,1,1,0.25,20,10,10,20,2024-10-29_11h08.28.879,vibrotactile_experiment_test,2024.1.1,None,2024-10-29 11h08.50.588358 +0000
Visual Only,0.5,0.75,right,5,3,53,3,155.0550639,,,,,,,,,,,,,155.0413642,155.0550639,155.290123,155.2901438,155.3057552,156.7903658,156.790385,156.8060552,156.8060552,157.041475,157.041497,157.0555784,157.0555784,157.8408013,right,1,157.1764841,0.1683708,155.3057552,156.8060552,,,157.8553186,157.8553186,,,,,,,,1,1,0.25,20,10,10,20,2024-10-29_11h08.28.879,vibrotactile_experiment_test,2024.1.1,None,2024-10-29 11h08.50.588358 +0000
Visual Only,0.5,0.1,right,5,4,54,9,157.8553186,,,,,,,,,,,,,157.8414885,157.8553186,158.0908148,158.0908344,158.105986,159.5908808,159.590901,159.6055545,159.6055545,159.8409423,159.8409671,159.8552617,159.8552617,160.6405679,None,0,,,158.105986,159.6055545,159.8552617,159.8552617,160.6555577,160.6555577,,,,,,,,1,1,0.25,20,10,10,20,2024-10-29_11h08.28.879,vibrotactile_experiment_test,2024.1.1,None,2024-10-29 11h08.50.588358 +0000
Visual Only,0.5,0.25,right,5,5,55,7,160.6555577,,,,,,,,,,,,,160.6410361,160.6555577,160.8909642,160.8909831,160.9056884,162.3910496,162.3910649,162.4052905,162.4052905,162.6438029,162.6438179,162.6557606,162.6557606,163.4408805,right,1,163.1693536,0.1276341,160.9056884,,,,163.4551802,163.4551802,,,,,,,,1,1,0.25,20,10,10,20,2024-10-29_11h08.28.879,vibrotactile_experiment_test,2024.1.1,None,2024-10-29 11h08.50.588358 +0000
Visual Only,-0.5,0.5,left,5,6,56,4,163.4551802,,,,,,,,,,,,,163.4414134,163.4551802,163.6909873,163.6910061,163.7053324,165.1932845,165.1933269,165.2071135,165.2071135,165.441148,165.4411732,165.4550732,165.4550732,166.2428465,left,1,165.7844267,0.1129924,163.7053324,,,,,,,,,,,,,1,1,0.25,20,10,10,20,2024-10-29_11h08.28.879,vibrotactile_experiment_test,2024.1.1,None,2024-10-29 11h08.50.588358 +0000
Visual Only,0.5,0.5,right,5,7,57,5,166.2559198,,,,,,,,,,,,,166.2436285,166.2559198,166.4913895,166.4914363,166.5053228,167.9910688,167.991107,168.0052361,168.0052361,168.2269281,168.2269517,168.239548,168.239548,169.0238705,right,1,168.6085538,0.1044982,,168.0052361,,,169.0416962,169.0416962,,,,,,,,1,1,0.25,20,10,10,20,2024-10-29_11h08.28.879,vibrotactile_experiment_test,2024.1.1,None,2024-10-29 11h08.50.588358 +0000
Visual Only,0.5,1,right,5,8,58,1,169.0416962,,,,,,,,,,,,,169.0243445,169.0416962,169.2897487,169.2897642,169.3050216,170.7908334,170.7908485,170.8063989,170.8063989,171.024242,171.0242643,171.0383362,171.0383362,171.8244107,right,1,171.4731664,0.1114712,,,,,171.8383143,171.8383143,,,,,,,,1,1,0.25,20,10,10,20,2024-10-29_11h08.28.879,vibrotactile_experiment_test,2024.1.1,None,2024-10-29 11h08.50.588358 +0000
Visual Only,-0.5,0.75,left,5,9,59,2,171.8383143,,,,,,,,,,,,,171.8249564,171.8383143,172.0740699,172.0740887,172.0886454,173.5742137,173.5742292,173.5890305,173.5890305,173.824061,173.824085,173.8397034,173.8397034,174.6241656,left,1,174.0891881,0.1360826,172.0886454,173.5890305,173.8397034,173.8397034,174.6386904,174.6386904,,,,,,,,1,1,0.25,20,10,10,20,2024-10-29_11h08.28.879,vibrotactile_experiment_test,2024.1.1,None,2024-10-29 11h08.50.588358 +0000
Visual Only,0.5,0.75,right,6,0,60,3,174.6386904,,,,,,,,,,,,,174.6247023,174.6386904,174.8739562,174.8739773,174.8889298,176.3748865,176.374904,176.3892353,176.3892353,176.6243371,176.6243564,176.6386883,176.6386883,177.4236451,right,1,176.9604838,0.1039733,174.8889298,176.3892353,176.6386883,176.6386883,177.4410056,177.4410056,,,,,,,,1,1,0.25,20,10,10,20,2024-10-29_11h08.28.879,vibrotactile_experiment_test,2024.1.1,None,2024-10-29 11h08.50.588358 +0000
Visual Only,0.5,0.25,right,6,1,61,7,177.4410056,,,,,,,,,,,,,177.4241645,177.4410056,177.6765984,177.6766137,177.6881343,179.1740621,179.1740777,179.1891424,179.1891424,179.4243084,179.424328,179.4385331,179.4385331,180.2094424,right,1,179.8166186,0.1125892,,,179.4385331,179.4385331,,,,,,,,,,1,1,0.25,20,10,10,20,2024-10-29_11h08.28.879,vibrotactile_experiment_test,2024.1.1,None,2024-10-29 11h08.50.588358 +0000
Visual Only,0.5,0.1,right,6,2,62,9,180.2243886,,,,,,,,,,,,,180.209952,180.2243886,180.4752351,180.4752547,180.4905898,181.9739173,181.9739332,181.988725,181.988725,182.2092613,182.2092892,182.2235178,182.2235178,183.00792,right,1,182.5450413,0.1356678,,,,,,,,,,,,,,1,1,0.25,20,10,10,20,2024-10-29_11h08.28.879,vibrotactile_experiment_test,2024.1.1,None,2024-10-29 11h08.50.588358 +0000
Visual Only,-0.5,0.75,left,6,3,63,2,183.0225261,,,,,,,,,,,,,183.0084705,183.0225261,183.2587077,183.2587392,183.2731938,184.7598627,184.7598994,184.7723239,184.7723239,185.0073948,185.0074209,185.0222703,185.0222703,185.8079213,left,1,185.3771722,0.1521954,,,185.0222703,185.0222703,,,,,,,,,,1,1,0.25,20,10,10,20,2024-10-29_11h08.28.879,vibrotactile_experiment_test,2024.1.1,None,2024-10-29 11h08.50.588358 +0000
Visual Only,-0.5,1,left,6,4,64,0,185.8223776,,,,,,,,,,,,,185.8087416,185.8223776,186.0595331,186.0595477,186.0721327,187.5571144,187.5571534,187.575046,187.575046,187.807793,187.8078142,187.822596,187.822596,188.6071465,left,1,188.0805791,0.1840635,,187.575046,,,,,,,,,,,,1,1,0.25,20,10,10,20,2024-10-29_11h08.28.879,vibrotactile_experiment_test,2024.1.1,None,2024-10-29 11h08.50.588358 +0000
Visual Only,-0.5,0.25,left,6,5,65,6,188.6220382,,,,,,,,,,,,,188.6076694,188.6220382,188.8570712,188.8571156,188.8721597,190.3592287,190.3592673,190.3732313,190.3732313,190.608441,190.6084843,190.6221689,190.6221689,191.4100817,left,1,190.8892165,0.1672978,188.8721597,,,,,,,,,,,,,1,1,0.25,20,10,10,20,2024-10-29_11h08.28.879,vibrotactile_experiment_test,2024.1.1,None,2024-10-29 11h08.50.588358 +0000
Visual Only,0.5,1,right,6,6,66,1,191.421672,,,,,,,,,,,,,191.41054,191.421672,191.6576856,191.6577043,191.671634,193.1569165,193.1569333,193.1719961,193.1719961,193.4078903,193.4079144,193.4219486,193.4219486,194.2087233,right,1,193.7369946,0.1278996,191.671634,193.1719961,193.4219486,193.4219486,194.2239857,194.2239857,,,,,,,,1,1,0.25,20,10,10,20,2024-10-29_11h08.28.879,vibrotactile_experiment_test,2024.1.1,None,2024-10-29 11h08.50.588358 +0000
Visual Only,-0.5,0.5,left,6,7,67,4,194.2239857,,,,,,,,,,,,,194.2093598,194.2239857,194.4746273,194.4746418,194.488739,195.9605888,195.9606029,195.9722312,195.9722312,196.2092775,196.2093123,196.2231009,196.2231009,197.0076464,left,1,196.5369204,0.1756369,,,,,197.0222291,197.0222291,,,,,,,,1,1,0.25,20,10,10,20,2024-10-29_11h08.28.879,vibrotactile_experiment_test,2024.1.1,None,2024-10-29 11h08.50.588358 +0000
Visual Only,-0.5,0.1,left,6,8,68,8,197.0222291,,,,,,,,,,,,,197.0081702,197.0222291,197.2580865,197.2581117,197.2722475,198.7571491,198.7571678,198.7722878,198.7722878,199.0075511,199.0075765,199.0217923,199.0217923,199.8076961,left,1,199.2887587,0.1677911,,198.7722878,199.0217923,199.0217923,199.8219132,199.8219132,,,,,,,,1,1,0.25,20,10,10,20,2024-10-29_11h08.28.879,vibrotactile_experiment_test,2024.1.1,None,2024-10-29 11h08.50.588358 +0000
Visual Only,0.5,0.5,right,6,9,69,5,199.8219132,,,,,,,,,,,,,199.8082199,199.8219132,200.0568697,200.0568896,200.0716215,201.5574856,201.5575058,201.5717643,201.5717643,201.8072529,201.8072711,201.8222068,201.8222068,202.60729,right,1,202.1536746,0.1268958,200.0716215,201.5717643,201.8222068,201.8222068,202.6223305,202.6223305,,,,,,,,1,1,0.25,20,10,10,20,2024-10-29_11h08.28.879,vibrotactile_experiment_test,2024.1.1,None,2024-10-29 11h08.50.588358 +0000
Visual Only,0.5,0.25,right,7,0,70,7,202.6223305,,,,,,,,,,,,,202.6078331,202.6223305,202.8568093,202.8568268,202.8715656,204.3573938,204.357414,204.3744553,204.3744553,204.6080558,204.6080978,204.621948,204.621948,205.4076447,right,1,204.9853123,0.1683509,202.8715656,204.3744553,,,205.422363,205.422363,,,,,,,,1,1,0.25,20,10,10,20,2024-10-29_11h08.28.879,vibrotactile_experiment_test,2024.1.1,None,2024-10-29 11h08.50.588358 +0000
Visual Only,-0.5,0.1,left,7,1,71,8,205.422363,,,,,,,,,,,,,205.4081907,205.422363,205.657717,205.6577376,205.6722159,207.157473,207.1574919,207.1721418,207.1721418,207.4079629,207.4080028,207.4222833,207.4222833,208.2122763,left,1,207.7848093,0.1689309,205.6722159,207.1721418,207.4222833,207.4222833,,,,,,,,,,1,1,0.25,20,10,10,20,2024-10-29_11h08.28.879,vibrotactile_experiment_test,2024.1.1,None,2024-10-29 11h08.50.588358 +0000
Visual Only,0.5,0.75,right,7,2,72,3,208.223386,,,,,,,,,,,,,208.2127657,208.223386,208.4738107,208.4738255,208.4890526,209.9602504,209.9602654,209.9717323,209.9717323,210.2101158,210.2101577,210.223459,210.223459,211.0079126,right,1,210.5773069,0.1591564,,,,,,,,,,,,,,1,1,0.25,20,10,10,20,2024-10-29_11h08.28.879,vibrotactile_experiment_test,2024.1.1,None,2024-10-29 11h08.50.588358 +0000
Visual Only,-0.5,1,left,7,3,73,0,211.0217612,,,,,,,,,,,,,211.0084815,211.0217612,211.2583425,211.2583684,211.2737121,212.7737788,212.7737949,212.7889545,212.7889545,213.0077665,213.0078238,213.0224613,213.0224613,213.8075449,left,1,213.3125035,0.1847944,,,,,213.8223117,213.8223117,,,,,,,,1,1,0.25,20,10,10,20,2024-10-29_11h08.28.879,vibrotactile_experiment_test,2024.1.1,None,2024-10-29 11h08.50.588358 +0000
Visual Only,0.5,0.5,right,7,4,74,5,213.8223117,,,,,,,,,,,,,213.8080955,213.8223117,214.0584653,214.0584831,214.0742996,215.573685,215.5736992,215.5924295,215.5924295,215.8083136,215.8083399,215.8221378,215.8221378,216.6076279,right,1,216.3128723,0.1764811,214.0742996,,,,216.6220219,216.6220219,,,,,,,,1,1,0.25,20,10,10,20,2024-10-29_11h08.28.879,vibrotactile_experiment_test,2024.1.1,None,2024-10-29 11h08.50.588358 +0000
Visual Only,-0.5,0.75,left,7,5,75,2,216.6220219,,,,,,,,,,,,,216.6081733,216.6220219,216.8572592,216.8572779,216.8716224,218.3572316,218.3572552,218.372013,218.372013,218.6074265,218.6074493,218.622362,218.622362,219.40695,left,1,219.0088354,0.1764481,216.8716224,218.372013,218.622362,218.622362,219.4221385,219.4221385,,,,,,,,1,1,0.25,20,10,10,20,2024-10-29_11h08.28.879,vibrotactile_experiment_test,2024.1.1,None,2024-10-29 11h08.50.588358 +0000
Visual Only,0.5,0.1,right,7,6,76,9,219.4221385,,,,,,,,,,,,,219.4074744,219.4221385,219.6576993,219.6577203,219.6720435,221.1573155,221.1573305,221.1722122,221.1722122,221.4076097,221.4076262,221.4225985,221.4225985,222.2085291,right,1,221.7294272,0.1360869,219.6720435,221.1722122,,,,,,,,,,,,1,1,0.25,20,10,10,20,2024-10-29_11h08.28.879,vibrotactile_experiment_test,2024.1.1,None,2024-10-29 11h08.50.588358 +0000
Visual Only,0.5,1,right,7,7,77,1,222.2235886,,,,,,,,,,,,,222.2093922,222.2235886,222.4602139,222.460229,222.4719014,223.9605997,223.960615,223.9729171,223.9729171,224.2122495,224.212266,224.2236354,224.2236354,225.0079343,right,1,224.7221971,0.1582745,,,,,,,,,,,,,,1,1,0.25,20,10,10,20,2024-10-29_11h08.28.879,vibrotactile_experiment_test,2024.1.1,None,2024-10-29 11h08.50.588358 +0000
Visual Only,-0.5,0.5,left,7,8,78,4,225.0221702,,,,,,,,,,,,,225.0087129,225.0221702,225.2584329,225.2584914,225.272136,226.7572496,226.7572721,226.771965,226.771965,227.0076807,227.0077057,227.0225495,227.0225495,227.8075267,left,1,227.3927717,0.1760929,,226.771965,227.0225495,227.0225495,227.821742,227.821742,,,,,,,,1,1,0.25,20,10,10,20,2024-10-29_11h08.28.879,vibrotactile_experiment_test,2024.1.1,None,2024-10-29 11h08.50.588358 +0000
Visual Only,-0.5,0.25,left,7,9,79,6,227.821742,,,,,,,,,,,,,227.8081499,227.821742,228.0574291,228.0574462,228.0719803,229.5569194,229.5569416,229.5721995,229.5721995,229.8077988,229.8078235,229.8221344,229.8221344,230.6074854,left,1,230.1845582,0.1839903,228.0719803,229.5721995,229.8221344,229.8221344,230.6219721,230.6219721,,,,,,,,1,1,0.25,20,10,10,20,2024-10-29_11h08.28.879,vibrotactile_experiment_test,2024.1.1,None,2024-10-29 11h08.50.588358 +0000
Visual Only,-0.5,1,left,8,0,80,0,230.6219721,,,,,,,,,,,,,230.6080306,230.6219721,230.8568427,230.8568641,230.8722501,232.3579434,232.3579839,232.3730457,232.3730457,232.6074156,232.60744,232.6229068,232.6229068,233.3940442,left,1,232.9364793,0.1928941,230.8722501,232.3730457,,,,,,,,,,,,1,1,0.25,20,10,10,20,2024-10-29_11h08.28.879,vibrotactile_experiment_test,2024.1.1,None,2024-10-29 11h08.50.588358 +0000
Visual Only,-0.5,0.1,left,8,1,81,8,233.4052712,,,,,,,,,,,,,233.3945195,233.4052712,233.6402189,233.6402397,233.6548726,235.1402796,235.1402988,235.1550794,235.1550794,235.3904733,235.3904992,235.4050682,235.4050682,236.1937533,None,0,,,233.6548726,235.1550794,235.4050682,235.4050682,,,,,,,,,,1,1,0.25,20,10,10,20,2024-10-29_11h08.28.879,vibrotactile_experiment_test,2024.1.1,None,2024-10-29 11h08.50.588358 +0000
Visual Only,-0.5,0.75,left,8,2,82,2,236.2064071,,,,,,,,,,,,,236.1941278,236.2064071,236.4405639,236.4405786,236.4582713,237.9570516,237.9570667,237.9721782,237.9721782,238.1936315,238.1936494,238.2062639,238.2062639,238.9912305,left,1,238.4262629,0.1190552,,,,,,,,,,,,,,1,1,0.25,20,10,10,20,2024-10-29_11h08.28.879,vibrotactile_experiment_test,2024.1.1,None,2024-10-29 11h08.50.588358 +0000
Visual Only,0.5,0.25,right,8,3,83,7,239.0049774,,,,,,,,,,,,,238.9917259,239.0049774,239.2413414,239.2413651,239.2563757,240.757089,240.7571106,240.7722088,240.7722088,240.9758331,240.9758573,240.988793,240.988793,241.7736023,right,1,241.2249485,0.1681114,,,,,241.7887963,241.7887963,,,,,,,,1,1,0.25,20,10,10,20,2024-10-29_11h08.28.879,vibrotactile_experiment_test,2024.1.1,None,2024-10-29 11h08.50.588358 +0000
Visual Only,-0.5,0.25,left,8,4,84,6,241.7887963,,,,,,,,,,,,,241.774128,241.7887963,242.0240504,242.0240713,242.0385359,243.5242994,243.5243414,243.5386354,243.5386354,243.7742551,243.7743018,243.7884909,243.7884909,244.5738925,left,1,244.0972145,0.1358374,242.0385359,,,,244.5883812,244.5883812,,,,,,,,1,1,0.25,20,10,10,20,2024-10-29_11h08.28.879,vibrotactile_experiment_test,2024.1.1,None,2024-10-29 11h08.50.588358 +0000
Visual Only,0.5,1,right,8,5,85,1,244.5883812,,,,,,,,,,,,,244.5744389,244.5883812,244.8241406,244.8241602,244.838457,246.3240141,246.3240274,246.3386551,246.3386551,246.5772872,246.5773027,246.5882871,246.5882871,247.3742241,right,1,246.7372568,0.1515229,244.838457,246.3386551,,,247.3884027,247.3884027,,,,,,,,1,1,0.25,20,10,10,20,2024-10-29_11h08.28.879,vibrotactile_experiment_test,2024.1.1,None,2024-10-29 11h08.50.588358 +0000
Visual Only,0.5,0.1,right,8,6,86,9,247.3884027,,,,,,,,,,,,,247.3749928,247.3884027,247.624086,247.6241063,247.6386219,249.1237594,249.1237771,249.1385648,249.1385648,249.3741933,249.3742187,249.3887248,249.3887248,250.1736596,right,1,249.6325059,0.1527827,247.6386219,249.1385648,249.3887248,249.3887248,250.1883664,250.1883664,,,,,,,,1,1,0.25,20,10,10,20,2024-10-29_11h08.28.879,vibrotactile_experiment_test,2024.1.1,None,2024-10-29 11h08.50.588358 +0000
Visual Only,0.5,0.75,right,8,7,87,3,250.1883664,,,,,,,,,,,,,250.1743362,250.1883664,250.424213,250.4242494,250.438326,251.9238138,251.9238312,251.9416816,251.9416816,252.1742948,252.1743142,252.1893722,252.1893722,252.9742119,right,1,252.3932599,0.1438546,250.438326,251.9416816,,,252.9885045,252.9885045,,,,,,,,1,1,0.25,20,10,10,20,2024-10-29_11h08.28.879,vibrotactile_experiment_test,2024.1.1,None,2024-10-29 11h08.50.588358 +0000
Visual Only,-0.5,0.5,left,8,8,88,4,252.9885045,,,,,,,,,,,,,252.9746742,252.9885045,253.2252866,253.2253102,253.2394753,254.7240957,254.7241144,254.738794,254.738794,254.9747045,254.974728,254.988828,254.988828,255.7741902,left,1,255.2652755,0.1597952,,254.738794,254.988828,254.988828,255.7885821,255.7885821,,,,,,,,1,1,0.25,20,10,10,20,2024-10-29_11h08.28.879,vibrotactile_experiment_test,2024.1.1,None,2024-10-29 11h08.50.588358 +0000
Visual Only,0.5,0.5,right,8,9,89,5,255.7885821,,,,,,,,,,,,,255.7747612,255.7885821,256.0248211,256.0248449,256.0389047,257.5240457,257.524064,257.5387534,257.5387534,257.7737156,257.773734,257.7916934,257.7916934,258.5738978,right,1,258.0812712,0.151992,256.0389047,257.5387534,257.7916934,257.7916934,,,,,,,,,,1,1,0.25,20,10,10,20,2024-10-29_11h08.28.879,vibrotactile_experiment_test,2024.1.1,None,2024-10-29 11h08.50.588358 +0000
Visual Only,-0.5,0.5,left,9,0,90,4,258.5883216,,,,,,,,,,,,,258.5744789,258.5883216,258.8240662,258.8240854,258.8384624,260.3240217,260.3240396,260.3417324,260.3417324,260.5613534,260.561373,260.5717432,260.5717432,261.356972,left,1,260.8332139,0.1599218,258.8384624,260.3417324,,,261.3719643,261.3719643,,,,,,,,1,1,0.25,20,10,10,20,2024-10-29_11h08.28.879,vibrotactile_experiment_test,2024.1.1,None,2024-10-29 11h08.50.588358 +0000
Visual Only,-0.5,0.1,left,9,1,91,8,261.3719643,,,,,,,,,,,,,261.3575273,261.3719643,261.607732,261.6077496,261.6218577,263.1068378,263.1068512,263.1219356,263.1219356,263.3439345,263.3439543,263.3553432,263.3553432,264.1404372,left,1,263.625185,0.1512487,261.6218577,263.1219356,,,264.1551315,264.1551315,,,,,,,,1,1,0.25,20,10,10,20,2024-10-29_11h08.28.879,vibrotactile_experiment_test,2024.1.1,None,2024-10-29 11h08.50.588358 +0000
Visual Only,0.5,0.5,right,9,2,92,5,264.1551315,,,,,,,,,,,,,264.1409463,264.1551315,264.391078,264.3910976,264.4047907,265.8905104,265.8905302,265.9055529,265.9055529,266.1407316,266.14075,266.1556673,266.1556673,266.9407788,right,1,266.3057673,0.1681241,264.4047907,265.9055529,266.1556673,266.1556673,266.9551994,266.9551994,,,,,,,,1,1,0.25,20,10,10,20,2024-10-29_11h08.28.879,vibrotactile_experiment_test,2024.1.1,None,2024-10-29 11h08.50.588358 +0000
Visual Only,-0.5,0.25,left,9,3,93,6,266.9551994,,,,,,,,,,,,,266.9413228,266.9551994,267.1909492,267.1909816,267.2063904,268.7066,268.7066143,268.7220831,268.7220831,268.9406345,268.9406566,268.9554656,268.9554656,269.7403358,left,1,269.2091742,0.1680422,267.2063904,,,,269.7554265,269.7554265,,,,,,,,1,1,0.25,20,10,10,20,2024-10-29_11h08.28.879,vibrotactile_experiment_test,2024.1.1,None,2024-10-29 11h08.50.588358 +0000
Visual Only,0.5,1,right,9,4,94,1,269.7554265,,,,,,,,,,,,,269.7408502,269.7554265,269.9906743,269.990695,270.0058505,271.4906088,271.4906233,271.5051385,271.5051385,271.7279046,271.727923,271.7387917,271.7387917,272.5235504,right,1,272.0011612,0.1673639,270.0058505,271.5051385,,,272.5381455,272.5381455,,,,,,,,1,1,0.25,20,10,10,20,2024-10-29_11h08.28.879,vibrotactile_experiment_test,2024.1.1,None,2024-10-29 11h08.50.588358 +0000
Visual Only,0.5,0.25,right,9,5,95,7,272.5381455,,,,,,,,,,,,,272.5240558,272.5381455,272.7736385,272.7736529,272.788633,274.2756189,274.2756352,274.2899995,274.2899995,274.5238803,274.5239075,274.5416248,274.5416248,275.3243546,right,1,274.8409311,0.1362206,272.788633,,,,,,,,,,,,,1,1,0.25,20,10,10,20,2024-10-29_11h08.28.879,vibrotactile_experiment_test,2024.1.1,None,2024-10-29 11h08.50.588358 +0000
Visual Only,0.5,0.1,right,9,6,96,9,275.3388215,,,,,,,,,,,,,275.3248795,275.3388215,275.5742538,275.5742857,275.5883412,277.0739509,277.0739698,277.0887083,277.0887083,277.3251421,277.3251898,277.3384519,277.3384519,278.124221,right,1,277.7294495,0.143764,275.5883412,277.0887083,277.3384519,277.3384519,278.1390036,278.1390036,,,,,,,,1,1,0.25,20,10,10,20,2024-10-29_11h08.28.879,vibrotactile_experiment_test,2024.1.1,None,2024-10-29 11h08.50.588358 +0000
Visual Only,0.5,0.75,right,9,7,97,3,278.1390036,,,,,,,,,,,,,278.1247347,278.1390036,278.3748851,278.374908,278.388785,279.8740171,279.8740365,279.888854,279.888854,280.1106059,280.1106264,280.1217095,280.1217095,280.9072514,right,1,280.5131985,0.167448,278.388785,279.888854,,,280.9216911,280.9216911,,,,,,,,1,1,0.25,20,10,10,20,2024-10-29_11h08.28.879,vibrotactile_experiment_test,2024.1.1,None,2024-10-29 11h08.50.588358 +0000
Visual Only,-0.5,1,left,9,8,98,0,280.9216911,,,,,,,,,,,,,280.9077919,280.9216911,281.1567634,281.1567787,281.1718929,282.6572205,282.6572416,282.6724365,282.6724365,282.9071955,282.9072139,282.9221092,282.9221092,283.7074515,left,1,283.2255663,0.1590445,281.1718929,282.6724365,282.9221092,282.9221092,283.7215035,283.7215035,,,,,,,,1,1,0.25,20,10,10,20,2024-10-29_11h08.28.879,vibrotactile_experiment_test,2024.1.1,None,2024-10-29 11h08.50.588358 +0000
Visual Only,-0.5,0.75,left,9,9,99,2,283.7215035,,,,,,,,,,,,,283.7079507,283.7215035,283.9579426,283.9579604,283.9720758,285.457017,285.457037,285.4720765,285.4720765,285.7073251,285.7073445,285.7217966,285.7217966,286.5082897,left,1,286.0732059,0.2081217,283.9720758,285.4720765,285.7217966,285.7217966,286.5217853,286.5217853,,,,,,,,1,1,0.25,20,10,10,20,2024-10-29_11h08.28.879,vibrotactile_experiment_test,2024.1.1,None,2024-10-29 11h08.50.588358 +0000
,,,,,,,,,,,,,,,,,,,,,,,,,,,,,,,,,,,,,,,,,,,,,286.5087882,286.5217853,286.5217853,288.4912497,space,288.4890955,None,1,1,0.25,20,10,10,20,2024-10-29_11h08.28.879,vibrotactile_experiment_test,2024.1.1,None,2024-10-29 11h08.50.588358 +0000
